{"datasetJSONCreationDateTime":"2025-07-24T15:09:43","datasetJSONVersion":"1.1.0","itemGroupOID":"ex","records":591,"name":"ex","label":[],"columns":[{"dataType":"string","length":12,"itemOID":"STUDYID","name":"STUDYID","label":"Study Identifier"},{"dataType":"string","length":2,"itemOID":"DOMAIN","name":"DOMAIN","label":"Domain Abbreviation"},{"dataType":"string","length":11,"itemOID":"USUBJID","name":"USUBJID","label":"Unique Subject Identifier"},{"dataType":"float","itemOID":"EXSEQ","name":"EXSEQ","label":"Sequence Number"},{"dataType":"string","length":10,"itemOID":"EXTRT","name":"EXTRT","label":"Name of Actual Treatment"},{"dataType":"float","itemOID":"EXDOSE","name":"EXDOSE","label":"Dose per Administration"},{"dataType":"string","length":2,"itemOID":"EXDOSU","name":"EXDOSU","label":"Dose Units"},{"dataType":"string","length":5,"itemOID":"EXDOSFRM","name":"EXDOSFRM","label":"Dose Form"},{"dataType":"string","length":2,"itemOID":"EXDOSFRQ","name":"EXDOSFRQ","label":"Dosing Frequency per Interval"},{"dataType":"string","length":11,"itemOID":"EXROUTE","name":"EXROUTE","label":"Route of Administration"},{"dataType":"float","itemOID":"VISITNUM","name":"VISITNUM","label":"Visit Number"},{"dataType":"string","length":8,"itemOID":"VISIT","name":"VISIT","label":"Visit Name"},{"dataType":"float","itemOID":"VISITDY","name":"VISITDY","label":"Planned Study Day of Visit"},{"dataType":"string","length":10,"itemOID":"EXSTDTC","name":"EXSTDTC","label":"Start Date/Time of Treatment"},{"dataType":"string","length":10,"itemOID":"EXENDTC","name":"EXENDTC","label":"End Date/Time of Treatment"},{"dataType":"float","itemOID":"EXSTDY","name":"EXSTDY","label":"Study Day of Start of Treatment"},{"dataType":"float","itemOID":"EXENDY","name":"EXENDY","label":"Study Day of End of Treatment"}],"rows":[["CDISCPILOT01","EX","01-701-1015",1.0,"PLACEBO",0.0,"mg","PATCH","QD","TRANSDERMAL",3.0,"BASELINE",1.0,"2014-01-02","2014-01-16",1.0,15.0],["CDISCPILOT01","EX","01-701-1015",2.0,"PLACEBO",0.0,"mg","PATCH","QD","TRANSDERMAL",4.0,"WEEK 2",14.0,"2014-01-17","2014-06-18",16.0,168.0],["CDISCPILOT01","EX","01-701-1015",3.0,"PLACEBO",0.0,"mg","PATCH","QD","TRANSDERMAL",12.0,"WEEK 24",168.0,"2014-06-19","2014-07-02",169.0,182.0],["CDISCPILOT01","EX","01-701-1023",1.0,"PLACEBO",0.0,"mg","PATCH","QD","TRANSDERMAL",3.0,"BASELINE",1.0,"2012-08-05","2012-08-27",1.0,23.0],["CDISCPILOT01","EX","01-701-1023",2.0,"PLACEBO",0.0,"mg","PATCH","QD","TRANSDERMAL",4.0,"WEEK 2",14.0,"2012-08-28","2012-09-01",24.0,28.0],["CDISCPILOT01","EX","01-701-1028",1.0,"XANOMELINE",54.0,"mg","PATCH","QD","TRANSDERMAL",3.0,"BASELINE",1.0,"2013-07-19","2013-08-01",1.0,14.0],["CDISCPILOT01","EX","01-701-1028",2.0,"XANOMELINE",81.0,"mg","PATCH","QD","TRANSDERMAL",4.0,"WEEK 2",14.0,"2013-08-02","2014-01-06",15.0,172.0],["CDISCPILOT01","EX","01-701-1028",3.0,"XANOMELINE",54.0,"mg","PATCH","QD","TRANSDERMAL",12.0,"WEEK 24",168.0,"2014-01-07","2014-01-14",173.0,180.0],["CDISCPILOT01","EX","01-701-1033",1.0,"XANOMELINE",54.0,"mg","PATCH","QD","TRANSDERMAL",3.0,"BASELINE",1.0,"2014-03-18","2014-03-31",1.0,14.0],["CDISCPILOT01","EX","01-701-1034",1.0,"XANOMELINE",54.0,"mg","PATCH","QD","TRANSDERMAL",3.0,"BASELINE",1.0,"2014-07-01","2014-07-15",1.0,15.0],["CDISCPILOT01","EX","01-701-1034",2.0,"XANOMELINE",81.0,"mg","PATCH","QD","TRANSDERMAL",4.0,"WEEK 2",14.0,"2014-07-16","2014-12-17",16.0,170.0],["CDISCPILOT01","EX","01-701-1034",3.0,"XANOMELINE",54.0,"mg","PATCH","QD","TRANSDERMAL",12.0,"WEEK 24",168.0,"2014-12-18","2014-12-30",171.0,183.0],["CDISCPILOT01","EX","01-701-1047",1.0,"PLACEBO",0.0,"mg","PATCH","QD","TRANSDERMAL",3.0,"BASELINE",1.0,"2013-02-12","2013-02-25",1.0,14.0],["CDISCPILOT01","EX","01-701-1047",2.0,"PLACEBO",0.0,"mg","PATCH","QD","TRANSDERMAL",4.0,"WEEK 2",14.0,"2013-02-26","2013-03-09",15.0,26.0],["CDISCPILOT01","EX","01-701-1097",1.0,"XANOMELINE",54.0,"mg","PATCH","QD","TRANSDERMAL",3.0,"BASELINE",1.0,"2014-01-01","2014-01-15",1.0,15.0],["CDISCPILOT01","EX","01-701-1097",2.0,"XANOMELINE",54.0,"mg","PATCH","QD","TRANSDERMAL",4.0,"WEEK 2",14.0,"2014-01-16","2014-06-18",16.0,169.0],["CDISCPILOT01","EX","01-701-1097",3.0,"XANOMELINE",54.0,"mg","PATCH","QD","TRANSDERMAL",12.0,"WEEK 24",168.0,"2014-06-19","2014-07-09",170.0,190.0],["CDISCPILOT01","EX","01-701-1111",1.0,"XANOMELINE",54.0,"mg","PATCH","QD","TRANSDERMAL",3.0,"BASELINE",1.0,"2012-09-07","2012-09-16",1.0,10.0],["CDISCPILOT01","EX","01-701-1115",1.0,"XANOMELINE",54.0,"mg","PATCH","QD","TRANSDERMAL",3.0,"BASELINE",1.0,"2012-11-30","2012-12-13",1.0,14.0],["CDISCPILOT01","EX","01-701-1115",2.0,"XANOMELINE",54.0,"mg","PATCH","QD","TRANSDERMAL",4.0,"WEEK 2",14.0,"2012-12-14","2013-01-23",15.0,55.0],["CDISCPILOT01","EX","01-701-1118",1.0,"PLACEBO",0.0,"mg","PATCH","QD","TRANSDERMAL",3.0,"BASELINE",1.0,"2014-03-12","2014-03-26",1.0,15.0],["CDISCPILOT01","EX","01-701-1118",2.0,"PLACEBO",0.0,"mg","PATCH","QD","TRANSDERMAL",4.0,"WEEK 2",14.0,"2014-03-27","2014-08-27",16.0,169.0],["CDISCPILOT01","EX","01-701-1118",3.0,"PLACEBO",0.0,"mg","PATCH","QD","TRANSDERMAL",12.0,"WEEK 24",168.0,"2014-08-28","2014-09-09",170.0,182.0],["CDISCPILOT01","EX","01-701-1130",1.0,"PLACEBO",0.0,"mg","PATCH","QD","TRANSDERMAL",3.0,"BASELINE",1.0,"2014-02-15","2014-03-01",1.0,15.0],["CDISCPILOT01","EX","01-701-1130",2.0,"PLACEBO",0.0,"mg","PATCH","QD","TRANSDERMAL",4.0,"WEEK 2",14.0,"2014-03-02","2014-08-02",16.0,169.0],["CDISCPILOT01","EX","01-701-1130",3.0,"PLACEBO",0.0,"mg","PATCH","QD","TRANSDERMAL",12.0,"WEEK 24",168.0,"2014-08-03","2014-08-16",170.0,183.0],["CDISCPILOT01","EX","01-701-1133",1.0,"XANOMELINE",54.0,"mg","PATCH","QD","TRANSDERMAL",3.0,"BASELINE",1.0,"2012-10-28","2012-11-12",1.0,16.0],["CDISCPILOT01","EX","01-701-1133",2.0,"XANOMELINE",81.0,"mg","PATCH","QD","TRANSDERMAL",4.0,"WEEK 2",14.0,"2012-11-13","2013-04-18",17.0,173.0],["CDISCPILOT01","EX","01-701-1133",3.0,"XANOMELINE",54.0,"mg","PATCH","QD","TRANSDERMAL",12.0,"WEEK 24",168.0,"2013-04-19","2013-04-28",174.0,183.0],["CDISCPILOT01","EX","01-701-1146",1.0,"XANOMELINE",54.0,"mg","PATCH","QD","TRANSDERMAL",3.0,"BASELINE",1.0,"2013-05-20","2013-06-03",1.0,15.0],["CDISCPILOT01","EX","01-701-1146",2.0,"XANOMELINE",81.0,"mg","PATCH","QD","TRANSDERMAL",4.0,"WEEK 2",14.0,"2013-06-04","2013-06-26",16.0,38.0],["CDISCPILOT01","EX","01-701-1148",1.0,"XANOMELINE",54.0,"mg","PATCH","QD","TRANSDERMAL",3.0,"BASELINE",1.0,"2013-08-23","2013-09-05",1.0,14.0],["CDISCPILOT01","EX","01-701-1148",2.0,"XANOMELINE",81.0,"mg","PATCH","QD","TRANSDERMAL",4.0,"WEEK 2",14.0,"2013-09-06","2014-02-08",15.0,170.0],["CDISCPILOT01","EX","01-701-1148",3.0,"XANOMELINE",54.0,"mg","PATCH","QD","TRANSDERMAL",12.0,"WEEK 24",168.0,"2014-02-09","2014-02-20",171.0,182.0],["CDISCPILOT01","EX","01-701-1153",1.0,"PLACEBO",0.0,"mg","PATCH","QD","TRANSDERMAL",3.0,"BASELINE",1.0,"2013-09-23","2013-10-08",1.0,16.0],["CDISCPILOT01","EX","01-701-1153",2.0,"PLACEBO",0.0,"mg","PATCH","QD","TRANSDERMAL",4.0,"WEEK 2",14.0,"2013-10-09","2014-03-11",17.0,170.0],["CDISCPILOT01","EX","01-701-1153",3.0,"PLACEBO",0.0,"mg","PATCH","QD","TRANSDERMAL",12.0,"WEEK 24",168.0,"2014-03-12","2014-03-16",171.0,175.0],["CDISCPILOT01","EX","01-701-1180",1.0,"XANOMELINE",54.0,"mg","PATCH","QD","TRANSDERMAL",3.0,"BASELINE",1.0,"2013-02-12","2013-02-25",1.0,14.0],["CDISCPILOT01","EX","01-701-1180",2.0,"XANOMELINE",81.0,"mg","PATCH","QD","TRANSDERMAL",4.0,"WEEK 2",14.0,"2013-02-26","2013-03-18",15.0,35.0],["CDISCPILOT01","EX","01-701-1181",1.0,"XANOMELINE",54.0,"mg","PATCH","QD","TRANSDERMAL",3.0,"BASELINE",1.0,"2013-12-05","2013-12-09",1.0,5.0],["CDISCPILOT01","EX","01-701-1188",1.0,"XANOMELINE",54.0,"mg","PATCH","QD","TRANSDERMAL",3.0,"BASELINE",1.0,"2013-02-15","2013-03-02",1.0,16.0],["CDISCPILOT01","EX","01-701-1188",2.0,"XANOMELINE",54.0,"mg","PATCH","QD","TRANSDERMAL",4.0,"WEEK 2",14.0,"2013-03-03","2013-03-24",17.0,38.0],["CDISCPILOT01","EX","01-701-1192",1.0,"XANOMELINE",54.0,"mg","PATCH","QD","TRANSDERMAL",3.0,"BASELINE",1.0,"2012-07-22","2012-08-07",1.0,17.0],["CDISCPILOT01","EX","01-701-1192",2.0,"XANOMELINE",54.0,"mg","PATCH","QD","TRANSDERMAL",4.0,"WEEK 2",14.0,"2012-08-08","2013-01-11",18.0,174.0],["CDISCPILOT01","EX","01-701-1192",3.0,"XANOMELINE",54.0,"mg","PATCH","QD","TRANSDERMAL",12.0,"WEEK 24",168.0,"2013-01-12","2013-01-20",175.0,183.0],["CDISCPILOT01","EX","01-701-1203",1.0,"PLACEBO",0.0,"mg","PATCH","QD","TRANSDERMAL",3.0,"BASELINE",1.0,"2013-02-02","2013-02-23",1.0,22.0],["CDISCPILOT01","EX","01-701-1203",2.0,"PLACEBO",0.0,"mg","PATCH","QD","TRANSDERMAL",4.0,"WEEK 2",14.0,"2013-02-24","2013-07-22",23.0,171.0],["CDISCPILOT01","EX","01-701-1203",3.0,"PLACEBO",0.0,"mg","PATCH","QD","TRANSDERMAL",12.0,"WEEK 24",168.0,"2013-07-23","2013-08-03",172.0,183.0],["CDISCPILOT01","EX","01-701-1211",1.0,"XANOMELINE",54.0,"mg","PATCH","QD","TRANSDERMAL",3.0,"BASELINE",1.0,"2012-11-15","2012-11-28",1.0,14.0],["CDISCPILOT01","EX","01-701-1211",2.0,"XANOMELINE",54.0,"mg","PATCH","QD","TRANSDERMAL",4.0,"WEEK 2",14.0,"2012-11-29","2013-01-12",15.0,59.0],["CDISCPILOT01","EX","01-701-1234",1.0,"PLACEBO",0.0,"mg","PATCH","QD","TRANSDERMAL",3.0,"BASELINE",1.0,"2013-03-30","2013-04-21",1.0,23.0],["CDISCPILOT01","EX","01-701-1234",2.0,"PLACEBO",0.0,"mg","PATCH","QD","TRANSDERMAL",4.0,"WEEK 2",14.0,"2013-04-22","2013-09-10",24.0,165.0],["CDISCPILOT01","EX","01-701-1234",3.0,"PLACEBO",0.0,"mg","PATCH","QD","TRANSDERMAL",12.0,"WEEK 24",168.0,"2013-09-11","2013-09-22",166.0,177.0],["CDISCPILOT01","EX","01-701-1239",1.0,"XANOMELINE",54.0,"mg","PATCH","QD","TRANSDERMAL",3.0,"BASELINE",1.0,"2014-01-11","2014-01-25",1.0,15.0],["CDISCPILOT01","EX","01-701-1239",2.0,"XANOMELINE",81.0,"mg","PATCH","QD","TRANSDERMAL",4.0,"WEEK 2",14.0,"2014-01-26","2014-06-27",16.0,168.0],["CDISCPILOT01","EX","01-701-1239",3.0,"XANOMELINE",54.0,"mg","PATCH","QD","TRANSDERMAL",12.0,"WEEK 24",168.0,"2014-06-28","2014-07-10",169.0,181.0],["CDISCPILOT01","EX","01-701-1275",1.0,"XANOMELINE",54.0,"mg","PATCH","QD","TRANSDERMAL",3.0,"BASELINE",1.0,"2014-02-07","2014-02-22",1.0,16.0],["CDISCPILOT01","EX","01-701-1275",2.0,"XANOMELINE",81.0,"mg","PATCH","QD","TRANSDERMAL",4.0,"WEEK 2",14.0,"2014-02-23","2014-05-31",17.0,114.0],["CDISCPILOT01","EX","01-701-1287",1.0,"XANOMELINE",54.0,"mg","PATCH","QD","TRANSDERMAL",3.0,"BASELINE",1.0,"2014-01-25","2014-02-11",1.0,18.0],["CDISCPILOT01","EX","01-701-1287",2.0,"XANOMELINE",81.0,"mg","PATCH","QD","TRANSDERMAL",4.0,"WEEK 2",14.0,"2014-02-12","2014-07-12",19.0,169.0],["CDISCPILOT01","EX","01-701-1287",3.0,"XANOMELINE",54.0,"mg","PATCH","QD","TRANSDERMAL",12.0,"WEEK 24",168.0,"2014-07-13","2014-07-26",170.0,183.0],["CDISCPILOT01","EX","01-701-1294",1.0,"XANOMELINE",54.0,"mg","PATCH","QD","TRANSDERMAL",3.0,"BASELINE",1.0,"2013-03-24","2013-04-10",1.0,18.0],["CDISCPILOT01","EX","01-701-1294",2.0,"XANOMELINE",54.0,"mg","PATCH","QD","TRANSDERMAL",4.0,"WEEK 2",14.0,"2013-04-11","2013-06-14",19.0,83.0],["CDISCPILOT01","EX","01-701-1302",1.0,"XANOMELINE",54.0,"mg","PATCH","QD","TRANSDERMAL",3.0,"BASELINE",1.0,"2013-08-29","2013-09-15",1.0,18.0],["CDISCPILOT01","EX","01-701-1302",2.0,"XANOMELINE",81.0,"mg","PATCH","QD","TRANSDERMAL",4.0,"WEEK 2",14.0,"2013-09-16","2013-11-05",19.0,69.0],["CDISCPILOT01","EX","01-701-1317",1.0,"XANOMELINE",54.0,"mg","PATCH","QD","TRANSDERMAL",3.0,"BASELINE",1.0,"2014-05-22","2014-06-05",1.0,15.0],["CDISCPILOT01","EX","01-701-1317",2.0,"XANOMELINE",54.0,"mg","PATCH","QD","TRANSDERMAL",4.0,"WEEK 2",14.0,"2014-06-06","2014-11-06",16.0,169.0],["CDISCPILOT01","EX","01-701-1317",3.0,"XANOMELINE",54.0,"mg","PATCH","QD","TRANSDERMAL",12.0,"WEEK 24",168.0,"2014-11-07","2014-11-20",170.0,183.0],["CDISCPILOT01","EX","01-701-1324",1.0,"XANOMELINE",54.0,"mg","PATCH","QD","TRANSDERMAL",3.0,"BASELINE",1.0,"2012-10-02","2012-10-16",1.0,15.0],["CDISCPILOT01","EX","01-701-1324",2.0,"XANOMELINE",54.0,"mg","PATCH","QD","TRANSDERMAL",4.0,"WEEK 2",14.0,"2012-10-17","2013-03-19",16.0,169.0],["CDISCPILOT01","EX","01-701-1324",3.0,"XANOMELINE",54.0,"mg","PATCH","QD","TRANSDERMAL",12.0,"WEEK 24",168.0,"2013-03-20","2013-04-02",170.0,183.0],["CDISCPILOT01","EX","01-701-1341",1.0,"XANOMELINE",54.0,"mg","PATCH","QD","TRANSDERMAL",3.0,"BASELINE",1.0,"2013-01-05","2013-01-18",1.0,14.0],["CDISCPILOT01","EX","01-701-1341",2.0,"XANOMELINE",54.0,"mg","PATCH","QD","TRANSDERMAL",4.0,"WEEK 2",14.0,"2013-01-19","2013-01-26",15.0,22.0],["CDISCPILOT01","EX","01-701-1345",1.0,"PLACEBO",0.0,"mg","PATCH","QD","TRANSDERMAL",3.0,"BASELINE",1.0,"2013-10-08","2013-10-24",1.0,17.0],["CDISCPILOT01","EX","01-701-1345",2.0,"PLACEBO",0.0,"mg","PATCH","QD","TRANSDERMAL",4.0,"WEEK 2",14.0,"2013-10-25","2014-03-18",18.0,162.0],["CDISCPILOT01","EX","01-701-1360",1.0,"XANOMELINE",54.0,"mg","PATCH","QD","TRANSDERMAL",3.0,"BASELINE",1.0,"2013-07-31","2013-08-05",1.0,6.0],["CDISCPILOT01","EX","01-701-1363",1.0,"PLACEBO",0.0,"mg","PATCH","QD","TRANSDERMAL",3.0,"BASELINE",1.0,"2013-05-30","2013-06-12",1.0,14.0],["CDISCPILOT01","EX","01-701-1363",2.0,"PLACEBO",0.0,"mg","PATCH","QD","TRANSDERMAL",4.0,"WEEK 2",14.0,"2013-06-13","2013-11-13",15.0,168.0],["CDISCPILOT01","EX","01-701-1363",3.0,"PLACEBO",0.0,"mg","PATCH","QD","TRANSDERMAL",12.0,"WEEK 24",168.0,"2013-11-14","2013-11-27",169.0,182.0],["CDISCPILOT01","EX","01-701-1383",1.0,"XANOMELINE",54.0,"mg","PATCH","QD","TRANSDERMAL",3.0,"BASELINE",1.0,"2013-02-04","2013-02-19",1.0,16.0],["CDISCPILOT01","EX","01-701-1383",2.0,"XANOMELINE",81.0,"mg","PATCH","QD","TRANSDERMAL",4.0,"WEEK 2",14.0,"2013-02-20","2013-07-30",17.0,177.0],["CDISCPILOT01","EX","01-701-1383",3.0,"XANOMELINE",54.0,"mg","PATCH","QD","TRANSDERMAL",12.0,"WEEK 24",168.0,"2013-07-31","2013-08-06",178.0,184.0],["CDISCPILOT01","EX","01-701-1387",1.0,"PLACEBO",0.0,"mg","PATCH","QD","TRANSDERMAL",3.0,"BASELINE",1.0,"2014-03-12","2014-03-25",1.0,14.0],["CDISCPILOT01","EX","01-701-1392",1.0,"PLACEBO",0.0,"mg","PATCH","QD","TRANSDERMAL",3.0,"BASELINE",1.0,"2012-10-28","2012-11-11",1.0,15.0],["CDISCPILOT01","EX","01-701-1392",2.0,"PLACEBO",0.0,"mg","PATCH","QD","TRANSDERMAL",4.0,"WEEK 2",14.0,"2012-11-12","2013-04-15",16.0,170.0],["CDISCPILOT01","EX","01-701-1392",3.0,"PLACEBO",0.0,"mg","PATCH","QD","TRANSDERMAL",12.0,"WEEK 24",168.0,"2013-04-16","2013-04-28",171.0,183.0],["CDISCPILOT01","EX","01-701-1415",1.0,"PLACEBO",0.0,"mg","PATCH","QD","TRANSDERMAL",3.0,"BASELINE",1.0,"2013-09-23","2013-10-07",1.0,15.0],["CDISCPILOT01","EX","01-701-1415",2.0,"PLACEBO",0.0,"mg","PATCH","QD","TRANSDERMAL",4.0,"WEEK 2",14.0,"2013-10-08","2014-03-10",16.0,169.0],["CDISCPILOT01","EX","01-701-1415",3.0,"PLACEBO",0.0,"mg","PATCH","QD","TRANSDERMAL",12.0,"WEEK 24",168.0,"2014-03-11","2014-03-24",170.0,183.0],["CDISCPILOT01","EX","01-701-1429",1.0,"XANOMELINE",54.0,"mg","PATCH","QD","TRANSDERMAL",3.0,"BASELINE",1.0,"2013-03-19","2013-04-02",1.0,15.0],["CDISCPILOT01","EX","01-701-1429",2.0,"XANOMELINE",54.0,"mg","PATCH","QD","TRANSDERMAL",4.0,"WEEK 2",14.0,"2013-04-03","2013-04-30",16.0,43.0],["CDISCPILOT01","EX","01-701-1440",1.0,"PLACEBO",0.0,"mg","PATCH","QD","TRANSDERMAL",3.0,"BASELINE",1.0,"2013-08-08","2013-08-23",1.0,16.0],["CDISCPILOT01","EX","01-701-1440",2.0,"PLACEBO",0.0,"mg","PATCH","QD","TRANSDERMAL",4.0,"WEEK 2",14.0,"2013-08-24","2014-01-22",17.0,168.0],["CDISCPILOT01","EX","01-701-1440",3.0,"PLACEBO",0.0,"mg","PATCH","QD","TRANSDERMAL",12.0,"WEEK 24",168.0,"2014-01-23","2014-02-05",169.0,182.0],["CDISCPILOT01","EX","01-701-1442",1.0,"XANOMELINE",54.0,"mg","PATCH","QD","TRANSDERMAL",3.0,"BASELINE",1.0,"2013-10-26","2013-11-09",1.0,15.0],["CDISCPILOT01","EX","01-701-1442",2.0,"XANOMELINE",54.0,"mg","PATCH","QD","TRANSDERMAL",4.0,"WEEK 2",14.0,"2013-11-10","2014-04-17",16.0,174.0],["CDISCPILOT01","EX","01-701-1442",3.0,"XANOMELINE",54.0,"mg","PATCH","QD","TRANSDERMAL",12.0,"WEEK 24",168.0,"2014-04-18","2014-04-26",175.0,183.0],["CDISCPILOT01","EX","01-701-1444",1.0,"XANOMELINE",54.0,"mg","PATCH","QD","TRANSDERMAL",3.0,"BASELINE",1.0,"2013-01-05","2013-01-18",1.0,14.0],["CDISCPILOT01","EX","01-701-1444",2.0,"XANOMELINE",81.0,"mg","PATCH","QD","TRANSDERMAL",4.0,"WEEK 2",14.0,"2013-01-19","2013-02-12",15.0,39.0],["CDISCPILOT01","EX","01-702-1082",1.0,"XANOMELINE",54.0,"mg","PATCH","QD","TRANSDERMAL",3.0,"BASELINE",1.0,"2013-07-26","2013-08-08",1.0,14.0],["CDISCPILOT01","EX","01-702-1082",2.0,"XANOMELINE",54.0,"mg","PATCH","QD","TRANSDERMAL",4.0,"WEEK 2",14.0,"2013-08-09","2013-10-13",15.0,80.0],["CDISCPILOT01","EX","01-703-1042",1.0,"PLACEBO",0.0,"mg","PATCH","QD","TRANSDERMAL",3.0,"BASELINE",1.0,"2013-03-02","2013-03-14",1.0,13.0],["CDISCPILOT01","EX","01-703-1042",2.0,"PLACEBO",0.0,"mg","PATCH","QD","TRANSDERMAL",4.0,"WEEK 2",14.0,"2013-03-15","2013-08-09",14.0,161.0],["CDISCPILOT01","EX","01-703-1042",3.0,"PLACEBO",0.0,"mg","PATCH","QD","TRANSDERMAL",12.0,"WEEK 24",168.0,"2013-08-10","2013-08-31",162.0,183.0],["CDISCPILOT01","EX","01-703-1076",1.0,"XANOMELINE",54.0,"mg","PATCH","QD","TRANSDERMAL",3.0,"BASELINE",1.0,"2013-10-25","2013-11-06",1.0,13.0],["CDISCPILOT01","EX","01-703-1076",2.0,"XANOMELINE",81.0,"mg","PATCH","QD","TRANSDERMAL",4.0,"WEEK 2",14.0,"2013-11-07","2013-12-24",14.0,61.0],["CDISCPILOT01","EX","01-703-1086",1.0,"XANOMELINE",54.0,"mg","PATCH","QD","TRANSDERMAL",3.0,"BASELINE",1.0,"2012-09-02","2012-09-16",1.0,15.0],["CDISCPILOT01","EX","01-703-1086",2.0,"XANOMELINE",54.0,"mg","PATCH","QD","TRANSDERMAL",4.0,"WEEK 2",14.0,"2012-09-17","2012-12-04",16.0,94.0],["CDISCPILOT01","EX","01-703-1096",1.0,"PLACEBO",0.0,"mg","PATCH","QD","TRANSDERMAL",3.0,"BASELINE",1.0,"2013-01-25","2013-02-09",1.0,16.0],["CDISCPILOT01","EX","01-703-1096",2.0,"PLACEBO",0.0,"mg","PATCH","QD","TRANSDERMAL",4.0,"WEEK 2",14.0,"2013-02-10","2013-03-16",17.0,51.0],["CDISCPILOT01","EX","01-703-1100",1.0,"PLACEBO",0.0,"mg","PATCH","QD","TRANSDERMAL",3.0,"BASELINE",1.0,"2013-03-13","2013-03-29",1.0,17.0],["CDISCPILOT01","EX","01-703-1100",2.0,"PLACEBO",0.0,"mg","PATCH","QD","TRANSDERMAL",4.0,"WEEK 2",14.0,"2013-03-30","2013-08-28",18.0,169.0],["CDISCPILOT01","EX","01-703-1100",3.0,"PLACEBO",0.0,"mg","PATCH","QD","TRANSDERMAL",12.0,"WEEK 24",168.0,"2013-08-29","2013-09-14",170.0,186.0],["CDISCPILOT01","EX","01-703-1119",1.0,"XANOMELINE",54.0,"mg","PATCH","QD","TRANSDERMAL",3.0,"BASELINE",1.0,"2013-02-20","2013-03-10",1.0,19.0],["CDISCPILOT01","EX","01-703-1119",2.0,"XANOMELINE",54.0,"mg","PATCH","QD","TRANSDERMAL",4.0,"WEEK 2",14.0,"2013-03-11","2013-06-13",20.0,114.0],["CDISCPILOT01","EX","01-703-1175",1.0,"PLACEBO",0.0,"mg","PATCH","QD","TRANSDERMAL",3.0,"BASELINE",1.0,"2013-12-20","2013-12-26",1.0,7.0],["CDISCPILOT01","EX","01-703-1182",1.0,"XANOMELINE",54.0,"mg","PATCH","QD","TRANSDERMAL",3.0,"BASELINE",1.0,"2013-10-17","2013-10-31",1.0,15.0],["CDISCPILOT01","EX","01-703-1182",2.0,"XANOMELINE",54.0,"mg","PATCH","QD","TRANSDERMAL",4.0,"WEEK 2",14.0,"2013-11-01","2013-12-11",16.0,56.0],["CDISCPILOT01","EX","01-703-1197",1.0,"XANOMELINE",54.0,"mg","PATCH","QD","TRANSDERMAL",3.0,"BASELINE",1.0,"2013-06-16","2013-06-29",1.0,14.0],["CDISCPILOT01","EX","01-703-1210",1.0,"PLACEBO",0.0,"mg","PATCH","QD","TRANSDERMAL",3.0,"BASELINE",1.0,"2013-03-16","2013-03-30",1.0,15.0],["CDISCPILOT01","EX","01-703-1210",2.0,"PLACEBO",0.0,"mg","PATCH","QD","TRANSDERMAL",4.0,"WEEK 2",14.0,"2013-03-31","2013-08-24",16.0,162.0],["CDISCPILOT01","EX","01-703-1210",3.0,"PLACEBO",0.0,"mg","PATCH","QD","TRANSDERMAL",12.0,"WEEK 24",168.0,"2013-08-25","2013-09-06",163.0,175.0],["CDISCPILOT01","EX","01-703-1258",1.0,"XANOMELINE",54.0,"mg","PATCH","QD","TRANSDERMAL",3.0,"BASELINE",1.0,"2012-07-20","2012-08-01",1.0,13.0],["CDISCPILOT01","EX","01-703-1258",2.0,"XANOMELINE",81.0,"mg","PATCH","QD","TRANSDERMAL",4.0,"WEEK 2",14.0,"2012-08-02","2012-12-31",14.0,165.0],["CDISCPILOT01","EX","01-703-1258",3.0,"XANOMELINE",54.0,"mg","PATCH","QD","TRANSDERMAL",12.0,"WEEK 24",168.0,"2013-01-01","2013-01-11",166.0,176.0],["CDISCPILOT01","EX","01-703-1279",1.0,"XANOMELINE",54.0,"mg","PATCH","QD","TRANSDERMAL",3.0,"BASELINE",1.0,"2013-05-13","2013-06-03",1.0,22.0],["CDISCPILOT01","EX","01-703-1295",1.0,"XANOMELINE",54.0,"mg","PATCH","QD","TRANSDERMAL",3.0,"BASELINE",1.0,"2013-11-21","2013-12-05",1.0,15.0],["CDISCPILOT01","EX","01-703-1295",2.0,"XANOMELINE",81.0,"mg","PATCH","QD","TRANSDERMAL",4.0,"WEEK 2",14.0,"2013-12-06","2014-04-19",16.0,150.0],["CDISCPILOT01","EX","01-703-1299",1.0,"PLACEBO",0.0,"mg","PATCH","QD","TRANSDERMAL",3.0,"BASELINE",1.0,"2012-09-12","2012-09-28",1.0,17.0],["CDISCPILOT01","EX","01-703-1299",2.0,"PLACEBO",0.0,"mg","PATCH","QD","TRANSDERMAL",4.0,"WEEK 2",14.0,"2012-09-29","2013-03-01",18.0,171.0],["CDISCPILOT01","EX","01-703-1299",3.0,"PLACEBO",0.0,"mg","PATCH","QD","TRANSDERMAL",12.0,"WEEK 24",168.0,"2013-03-02","2013-03-13",172.0,183.0],["CDISCPILOT01","EX","01-703-1335",1.0,"XANOMELINE",54.0,"mg","PATCH","QD","TRANSDERMAL",3.0,"BASELINE",1.0,"2014-03-17","2014-03-31",1.0,15.0],["CDISCPILOT01","EX","01-703-1335",2.0,"XANOMELINE",81.0,"mg","PATCH","QD","TRANSDERMAL",4.0,"WEEK 2",14.0,"2014-04-01","2014-05-07",16.0,52.0],["CDISCPILOT01","EX","01-703-1379",1.0,"XANOMELINE",54.0,"mg","PATCH","QD","TRANSDERMAL",3.0,"BASELINE",1.0,"2013-09-22","2013-10-07",1.0,16.0],["CDISCPILOT01","EX","01-703-1379",2.0,"XANOMELINE",54.0,"mg","PATCH","QD","TRANSDERMAL",4.0,"WEEK 2",14.0,"2013-10-08","2014-03-08",17.0,168.0],["CDISCPILOT01","EX","01-703-1379",3.0,"XANOMELINE",54.0,"mg","PATCH","QD","TRANSDERMAL",12.0,"WEEK 24",168.0,"2014-03-09","2014-03-21",169.0,181.0],["CDISCPILOT01","EX","01-703-1403",1.0,"XANOMELINE",54.0,"mg","PATCH","QD","TRANSDERMAL",3.0,"BASELINE",1.0,"2012-12-12","2012-12-13",1.0,2.0],["CDISCPILOT01","EX","01-703-1439",1.0,"XANOMELINE",54.0,"mg","PATCH","QD","TRANSDERMAL",3.0,"BASELINE",1.0,"2014-03-12","2014-03-26",1.0,15.0],["CDISCPILOT01","EX","01-703-1439",2.0,"XANOMELINE",81.0,"mg","PATCH","QD","TRANSDERMAL",4.0,"WEEK 2",14.0,"2014-03-27","2014-08-28",16.0,170.0],["CDISCPILOT01","EX","01-703-1439",3.0,"XANOMELINE",54.0,"mg","PATCH","QD","TRANSDERMAL",12.0,"WEEK 24",168.0,"2014-08-29","2014-09-11",171.0,184.0],["CDISCPILOT01","EX","01-704-1008",1.0,"XANOMELINE",54.0,"mg","PATCH","QD","TRANSDERMAL",3.0,"BASELINE",1.0,"2013-01-13","2013-01-28",1.0,16.0],["CDISCPILOT01","EX","01-704-1008",2.0,"XANOMELINE",81.0,"mg","PATCH","QD","TRANSDERMAL",4.0,"WEEK 2",14.0,"2013-01-29","2013-02-21",17.0,40.0],["CDISCPILOT01","EX","01-704-1009",1.0,"XANOMELINE",54.0,"mg","PATCH","QD","TRANSDERMAL",3.0,"BASELINE",1.0,"2013-08-27","2013-09-14",1.0,19.0],["CDISCPILOT01","EX","01-704-1009",2.0,"XANOMELINE",54.0,"mg","PATCH","QD","TRANSDERMAL",4.0,"WEEK 2",14.0,"2013-09-15","2013-09-25",20.0,30.0],["CDISCPILOT01","EX","01-704-1010",1.0,"PLACEBO",0.0,"mg","PATCH","QD","TRANSDERMAL",3.0,"BASELINE",1.0,"2014-02-21","2014-03-08",1.0,16.0],["CDISCPILOT01","EX","01-704-1010",2.0,"PLACEBO",0.0,"mg","PATCH","QD","TRANSDERMAL",4.0,"WEEK 2",14.0,"2014-03-09","2014-07-08",17.0,138.0],["CDISCPILOT01","EX","01-704-1017",1.0,"XANOMELINE",54.0,"mg","PATCH","QD","TRANSDERMAL",3.0,"BASELINE",1.0,"2013-10-06","2013-10-19",1.0,14.0],["CDISCPILOT01","EX","01-704-1017",2.0,"XANOMELINE",81.0,"mg","PATCH","QD","TRANSDERMAL",4.0,"WEEK 2",14.0,"2013-10-20","2013-11-18",15.0,44.0],["CDISCPILOT01","EX","01-704-1025",1.0,"XANOMELINE",54.0,"mg","PATCH","QD","TRANSDERMAL",3.0,"BASELINE",1.0,"2013-09-27","2013-10-11",1.0,15.0],["CDISCPILOT01","EX","01-704-1025",2.0,"XANOMELINE",54.0,"mg","PATCH","QD","TRANSDERMAL",4.0,"WEEK 2",14.0,"2013-10-12","2013-10-24",16.0,28.0],["CDISCPILOT01","EX","01-704-1065",1.0,"XANOMELINE",54.0,"mg","PATCH","QD","TRANSDERMAL",3.0,"BASELINE",1.0,"2013-10-24","2013-11-07",1.0,15.0],["CDISCPILOT01","EX","01-704-1065",2.0,"XANOMELINE",81.0,"mg","PATCH","QD","TRANSDERMAL",4.0,"WEEK 2",14.0,"2013-11-08","2013-12-22",16.0,60.0],["CDISCPILOT01","EX","01-704-1074",1.0,"XANOMELINE",54.0,"mg","PATCH","QD","TRANSDERMAL",3.0,"BASELINE",1.0,"2014-01-22","2014-02-09",1.0,19.0],["CDISCPILOT01","EX","01-704-1074",2.0,"XANOMELINE",81.0,"mg","PATCH","QD","TRANSDERMAL",4.0,"WEEK 2",14.0,"2014-02-10","2014-03-20",20.0,58.0],["CDISCPILOT01","EX","01-704-1093",1.0,"XANOMELINE",54.0,"mg","PATCH","QD","TRANSDERMAL",3.0,"BASELINE",1.0,"2013-03-15","2013-03-30",1.0,16.0],["CDISCPILOT01","EX","01-704-1093",2.0,"XANOMELINE",81.0,"mg","PATCH","QD","TRANSDERMAL",4.0,"WEEK 2",14.0,"2013-03-31","2013-06-17",17.0,95.0],["CDISCPILOT01","EX","01-704-1114",1.0,"XANOMELINE",54.0,"mg","PATCH","QD","TRANSDERMAL",3.0,"BASELINE",1.0,"2013-01-23","2013-02-03",1.0,12.0],["CDISCPILOT01","EX","01-704-1114",2.0,"XANOMELINE",54.0,"mg","PATCH","QD","TRANSDERMAL",4.0,"WEEK 2",14.0,"2013-02-04","2013-07-07",13.0,166.0],["CDISCPILOT01","EX","01-704-1120",1.0,"XANOMELINE",54.0,"mg","PATCH","QD","TRANSDERMAL",3.0,"BASELINE",1.0,"2013-12-02","2013-12-15",1.0,14.0],["CDISCPILOT01","EX","01-704-1120",2.0,"XANOMELINE",54.0,"mg","PATCH","QD","TRANSDERMAL",4.0,"WEEK 2",14.0,"2013-12-16","2014-02-01",15.0,62.0],["CDISCPILOT01","EX","01-704-1127",1.0,"PLACEBO",0.0,"mg","PATCH","QD","TRANSDERMAL",3.0,"BASELINE",1.0,"2013-10-02","2013-10-16",1.0,15.0],["CDISCPILOT01","EX","01-704-1127",2.0,"PLACEBO",0.0,"mg","PATCH","QD","TRANSDERMAL",4.0,"WEEK 2",14.0,"2013-10-17","2014-03-17",16.0,167.0],["CDISCPILOT01","EX","01-704-1127",3.0,"PLACEBO",0.0,"mg","PATCH","QD","TRANSDERMAL",12.0,"WEEK 24",168.0,"2014-03-18","2014-03-31",168.0,181.0],["CDISCPILOT01","EX","01-704-1135",1.0,"XANOMELINE",54.0,"mg","PATCH","QD","TRANSDERMAL",3.0,"BASELINE",1.0,"2013-10-31","2013-11-14",1.0,15.0],["CDISCPILOT01","EX","01-704-1135",2.0,"XANOMELINE",54.0,"mg","PATCH","QD","TRANSDERMAL",4.0,"WEEK 2",14.0,"2013-11-15","2014-05-01",16.0,183.0],["CDISCPILOT01","EX","01-704-1135",3.0,"XANOMELINE",54.0,"mg","PATCH","QD","TRANSDERMAL",12.0,"WEEK 24",168.0,"2014-05-02","2014-05-16",184.0,198.0],["CDISCPILOT01","EX","01-704-1164",1.0,"PLACEBO",0.0,"mg","PATCH","QD","TRANSDERMAL",3.0,"BASELINE",1.0,"2012-09-19","2012-10-04",1.0,16.0],["CDISCPILOT01","EX","01-704-1164",2.0,"PLACEBO",0.0,"mg","PATCH","QD","TRANSDERMAL",4.0,"WEEK 2",14.0,"2012-10-05","2013-03-17",17.0,180.0],["CDISCPILOT01","EX","01-704-1164",3.0,"PLACEBO",0.0,"mg","PATCH","QD","TRANSDERMAL",12.0,"WEEK 24",168.0,"2013-03-18","2013-04-04",181.0,198.0],["CDISCPILOT01","EX","01-704-1218",1.0,"XANOMELINE",54.0,"mg","PATCH","QD","TRANSDERMAL",3.0,"BASELINE",1.0,"2012-11-19","2012-12-03",1.0,15.0],["CDISCPILOT01","EX","01-704-1218",2.0,"XANOMELINE",54.0,"mg","PATCH","QD","TRANSDERMAL",4.0,"WEEK 2",14.0,"2012-12-04","2013-05-13",16.0,176.0],["CDISCPILOT01","EX","01-704-1218",3.0,"XANOMELINE",54.0,"mg","PATCH","QD","TRANSDERMAL",12.0,"WEEK 24",168.0,"2013-05-14","2013-05-27",177.0,190.0],["CDISCPILOT01","EX","01-704-1233",1.0,"PLACEBO",0.0,"mg","PATCH","QD","TRANSDERMAL",3.0,"BASELINE",1.0,"2013-03-21","2013-04-04",1.0,15.0],["CDISCPILOT01","EX","01-704-1233",2.0,"PLACEBO",0.0,"mg","PATCH","QD","TRANSDERMAL",4.0,"WEEK 2",14.0,"2013-04-05","",16.0,null],["CDISCPILOT01","EX","01-704-1241",1.0,"XANOMELINE",54.0,"mg","PATCH","QD","TRANSDERMAL",3.0,"BASELINE",1.0,"2013-08-25","2013-09-05",1.0,12.0],["CDISCPILOT01","EX","01-704-1241",2.0,"XANOMELINE",81.0,"mg","PATCH","QD","TRANSDERMAL",4.0,"WEEK 2",14.0,"2013-09-06","2013-10-09",13.0,46.0],["CDISCPILOT01","EX","01-704-1260",1.0,"PLACEBO",0.0,"mg","PATCH","QD","TRANSDERMAL",3.0,"BASELINE",1.0,"2012-08-30","2012-09-13",1.0,15.0],["CDISCPILOT01","EX","01-704-1260",2.0,"PLACEBO",0.0,"mg","PATCH","QD","TRANSDERMAL",4.0,"WEEK 2",14.0,"2012-09-14","2012-11-04",16.0,67.0],["CDISCPILOT01","EX","01-704-1266",1.0,"XANOMELINE",54.0,"mg","PATCH","QD","TRANSDERMAL",3.0,"BASELINE",1.0,"2013-10-13","2013-10-27",1.0,15.0],["CDISCPILOT01","EX","01-704-1266",2.0,"XANOMELINE",81.0,"mg","PATCH","QD","TRANSDERMAL",4.0,"WEEK 2",14.0,"2013-10-28","2013-12-06",16.0,55.0],["CDISCPILOT01","EX","01-704-1323",1.0,"XANOMELINE",54.0,"mg","PATCH","QD","TRANSDERMAL",3.0,"BASELINE",1.0,"2013-07-08","2013-07-23",1.0,16.0],["CDISCPILOT01","EX","01-704-1323",2.0,"XANOMELINE",54.0,"mg","PATCH","QD","TRANSDERMAL",4.0,"WEEK 2",14.0,"2013-07-24","2013-08-05",17.0,29.0],["CDISCPILOT01","EX","01-704-1325",1.0,"XANOMELINE",54.0,"mg","PATCH","QD","TRANSDERMAL",3.0,"BASELINE",1.0,"2014-04-23","2014-05-07",1.0,15.0],["CDISCPILOT01","EX","01-704-1325",2.0,"XANOMELINE",54.0,"mg","PATCH","QD","TRANSDERMAL",4.0,"WEEK 2",14.0,"2014-05-08","2014-07-04",16.0,73.0],["CDISCPILOT01","EX","01-704-1332",1.0,"XANOMELINE",54.0,"mg","PATCH","QD","TRANSDERMAL",3.0,"BASELINE",1.0,"2013-12-09","2013-12-23",1.0,15.0],["CDISCPILOT01","EX","01-704-1332",2.0,"XANOMELINE",81.0,"mg","PATCH","QD","TRANSDERMAL",4.0,"WEEK 2",14.0,"2013-12-24","2014-02-14",16.0,68.0],["CDISCPILOT01","EX","01-704-1351",1.0,"PLACEBO",0.0,"mg","PATCH","QD","TRANSDERMAL",3.0,"BASELINE",1.0,"2013-10-12","2013-10-26",1.0,15.0],["CDISCPILOT01","EX","01-704-1351",2.0,"PLACEBO",0.0,"mg","PATCH","QD","TRANSDERMAL",4.0,"WEEK 2",14.0,"2013-10-27","2014-04-04",16.0,175.0],["CDISCPILOT01","EX","01-704-1351",3.0,"PLACEBO",0.0,"mg","PATCH","QD","TRANSDERMAL",12.0,"WEEK 24",168.0,"2014-04-05","2014-04-18",176.0,189.0],["CDISCPILOT01","EX","01-704-1388",1.0,"PLACEBO",0.0,"mg","PATCH","QD","TRANSDERMAL",3.0,"BASELINE",1.0,"2012-12-07","2012-12-21",1.0,15.0],["CDISCPILOT01","EX","01-704-1388",2.0,"PLACEBO",0.0,"mg","PATCH","QD","TRANSDERMAL",4.0,"WEEK 2",14.0,"2012-12-22","2013-05-23",16.0,168.0],["CDISCPILOT01","EX","01-704-1388",3.0,"PLACEBO",0.0,"mg","PATCH","QD","TRANSDERMAL",12.0,"WEEK 24",168.0,"2013-05-24","2013-06-11",169.0,187.0],["CDISCPILOT01","EX","01-704-1435",1.0,"PLACEBO",0.0,"mg","PATCH","QD","TRANSDERMAL",3.0,"BASELINE",1.0,"2012-11-17","2012-12-01",1.0,15.0],["CDISCPILOT01","EX","01-704-1435",2.0,"PLACEBO",0.0,"mg","PATCH","QD","TRANSDERMAL",4.0,"WEEK 2",14.0,"2012-12-02","2013-01-09",16.0,54.0],["CDISCPILOT01","EX","01-704-1445",1.0,"PLACEBO",0.0,"mg","PATCH","QD","TRANSDERMAL",3.0,"BASELINE",1.0,"2014-05-11","2014-05-25",1.0,15.0],["CDISCPILOT01","EX","01-704-1445",2.0,"PLACEBO",0.0,"mg","PATCH","QD","TRANSDERMAL",4.0,"WEEK 2",14.0,"2014-05-26","2014-11-01",16.0,175.0],["CDISCPILOT01","EX","01-705-1018",1.0,"PLACEBO",0.0,"mg","PATCH","QD","TRANSDERMAL",3.0,"BASELINE",1.0,"2013-07-05","",1.0,null],["CDISCPILOT01","EX","01-705-1031",1.0,"XANOMELINE",54.0,"mg","PATCH","QD","TRANSDERMAL",3.0,"BASELINE",1.0,"2013-11-27","2013-12-18",1.0,22.0],["CDISCPILOT01","EX","01-705-1031",2.0,"XANOMELINE",54.0,"mg","PATCH","QD","TRANSDERMAL",4.0,"WEEK 2",14.0,"2013-12-19","",23.0,null],["CDISCPILOT01","EX","01-705-1059",1.0,"PLACEBO",0.0,"mg","PATCH","QD","TRANSDERMAL",3.0,"BASELINE",1.0,"2013-08-05","2013-08-19",1.0,15.0],["CDISCPILOT01","EX","01-705-1059",2.0,"PLACEBO",0.0,"mg","PATCH","QD","TRANSDERMAL",4.0,"WEEK 2",14.0,"2013-08-20","2013-12-05",16.0,123.0],["CDISCPILOT01","EX","01-705-1186",1.0,"PLACEBO",0.0,"mg","PATCH","QD","TRANSDERMAL",3.0,"BASELINE",1.0,"2014-01-08","2014-01-23",1.0,16.0],["CDISCPILOT01","EX","01-705-1186",2.0,"PLACEBO",0.0,"mg","PATCH","QD","TRANSDERMAL",4.0,"WEEK 2",14.0,"2014-01-24","2014-01-26",17.0,19.0],["CDISCPILOT01","EX","01-705-1199",1.0,"XANOMELINE",54.0,"mg","PATCH","QD","TRANSDERMAL",3.0,"BASELINE",1.0,"2013-09-16","2013-09-28",1.0,13.0],["CDISCPILOT01","EX","01-705-1280",1.0,"XANOMELINE",54.0,"mg","PATCH","QD","TRANSDERMAL",3.0,"BASELINE",1.0,"2014-01-17","2014-01-31",1.0,15.0],["CDISCPILOT01","EX","01-705-1280",2.0,"XANOMELINE",81.0,"mg","PATCH","QD","TRANSDERMAL",4.0,"WEEK 2",14.0,"2014-02-01","2014-07-11",16.0,176.0],["CDISCPILOT01","EX","01-705-1280",3.0,"XANOMELINE",54.0,"mg","PATCH","QD","TRANSDERMAL",12.0,"WEEK 24",168.0,"2014-07-12","2014-07-25",177.0,190.0],["CDISCPILOT01","EX","01-705-1281",1.0,"XANOMELINE",54.0,"mg","PATCH","QD","TRANSDERMAL",3.0,"BASELINE",1.0,"2013-11-28","2013-12-15",1.0,18.0],["CDISCPILOT01","EX","01-705-1281",2.0,"XANOMELINE",81.0,"mg","PATCH","QD","TRANSDERMAL",4.0,"WEEK 2",14.0,"2013-12-16","2014-02-27",19.0,92.0],["CDISCPILOT01","EX","01-705-1282",1.0,"PLACEBO",0.0,"mg","PATCH","QD","TRANSDERMAL",3.0,"BASELINE",1.0,"2012-12-26","2013-01-09",1.0,15.0],["CDISCPILOT01","EX","01-705-1282",2.0,"PLACEBO",0.0,"mg","PATCH","QD","TRANSDERMAL",4.0,"WEEK 2",14.0,"2013-01-10","2013-06-11",16.0,168.0],["CDISCPILOT01","EX","01-705-1282",3.0,"PLACEBO",0.0,"mg","PATCH","QD","TRANSDERMAL",12.0,"WEEK 24",168.0,"2013-06-12","2013-06-24",169.0,181.0],["CDISCPILOT01","EX","01-705-1292",1.0,"XANOMELINE",54.0,"mg","PATCH","QD","TRANSDERMAL",3.0,"BASELINE",1.0,"2013-10-14","2013-10-29",1.0,16.0],["CDISCPILOT01","EX","01-705-1292",2.0,"XANOMELINE",54.0,"mg","PATCH","QD","TRANSDERMAL",4.0,"WEEK 2",14.0,"2013-10-30","2014-04-28",17.0,197.0],["CDISCPILOT01","EX","01-705-1292",3.0,"XANOMELINE",54.0,"mg","PATCH","QD","TRANSDERMAL",12.0,"WEEK 24",168.0,"2014-04-29","2014-05-13",198.0,212.0],["CDISCPILOT01","EX","01-705-1303",1.0,"XANOMELINE",54.0,"mg","PATCH","QD","TRANSDERMAL",3.0,"BASELINE",1.0,"2013-12-16","2013-12-30",1.0,15.0],["CDISCPILOT01","EX","01-705-1303",2.0,"XANOMELINE",81.0,"mg","PATCH","QD","TRANSDERMAL",4.0,"WEEK 2",14.0,"2013-12-31","",16.0,null],["CDISCPILOT01","EX","01-705-1310",1.0,"XANOMELINE",54.0,"mg","PATCH","QD","TRANSDERMAL",3.0,"BASELINE",1.0,"2013-11-02","2013-11-22",1.0,21.0],["CDISCPILOT01","EX","01-705-1310",2.0,"XANOMELINE",81.0,"mg","PATCH","QD","TRANSDERMAL",4.0,"WEEK 2",14.0,"2013-11-23","2014-01-23",22.0,83.0],["CDISCPILOT01","EX","01-705-1349",1.0,"PLACEBO",0.0,"mg","PATCH","QD","TRANSDERMAL",3.0,"BASELINE",1.0,"2013-03-10","2013-03-24",1.0,15.0],["CDISCPILOT01","EX","01-705-1349",2.0,"PLACEBO",0.0,"mg","PATCH","QD","TRANSDERMAL",4.0,"WEEK 2",14.0,"2013-03-25","2013-08-25",16.0,169.0],["CDISCPILOT01","EX","01-705-1349",3.0,"PLACEBO",0.0,"mg","PATCH","QD","TRANSDERMAL",12.0,"WEEK 24",168.0,"2013-08-26","2013-09-08",170.0,183.0],["CDISCPILOT01","EX","01-705-1377",1.0,"XANOMELINE",54.0,"mg","PATCH","QD","TRANSDERMAL",3.0,"BASELINE",1.0,"2014-01-04","2014-01-25",1.0,22.0],["CDISCPILOT01","EX","01-705-1377",2.0,"XANOMELINE",81.0,"mg","PATCH","QD","TRANSDERMAL",4.0,"WEEK 2",14.0,"2014-01-26","",23.0,null],["CDISCPILOT01","EX","01-705-1382",1.0,"XANOMELINE",54.0,"mg","PATCH","QD","TRANSDERMAL",3.0,"BASELINE",1.0,"2013-05-13","",1.0,null],["CDISCPILOT01","EX","01-705-1393",1.0,"XANOMELINE",54.0,"mg","PATCH","QD","TRANSDERMAL",3.0,"BASELINE",1.0,"2012-09-07","2012-09-27",1.0,21.0],["CDISCPILOT01","EX","01-705-1393",2.0,"XANOMELINE",54.0,"mg","PATCH","QD","TRANSDERMAL",4.0,"WEEK 2",14.0,"2012-09-28","2013-02-01",22.0,148.0],["CDISCPILOT01","EX","01-705-1431",1.0,"XANOMELINE",54.0,"mg","PATCH","QD","TRANSDERMAL",3.0,"BASELINE",1.0,"2013-06-23","2013-07-07",1.0,15.0],["CDISCPILOT01","EX","01-705-1431",2.0,"XANOMELINE",54.0,"mg","PATCH","QD","TRANSDERMAL",4.0,"WEEK 2",14.0,"2013-07-08","2013-12-05",16.0,166.0],["CDISCPILOT01","EX","01-705-1431",3.0,"XANOMELINE",54.0,"mg","PATCH","QD","TRANSDERMAL",12.0,"WEEK 24",168.0,"2013-12-06","2013-12-19",167.0,180.0],["CDISCPILOT01","EX","01-706-1041",1.0,"PLACEBO",0.0,"mg","PATCH","QD","TRANSDERMAL",3.0,"BASELINE",1.0,"2013-12-31","2014-01-14",1.0,15.0],["CDISCPILOT01","EX","01-706-1041",2.0,"PLACEBO",0.0,"mg","PATCH","QD","TRANSDERMAL",4.0,"WEEK 2",14.0,"2014-01-15","2014-07-15",16.0,197.0],["CDISCPILOT01","EX","01-706-1041",3.0,"PLACEBO",0.0,"mg","PATCH","QD","TRANSDERMAL",12.0,"WEEK 24",168.0,"2014-07-16","2014-07-28",198.0,210.0],["CDISCPILOT01","EX","01-706-1049",1.0,"XANOMELINE",54.0,"mg","PATCH","QD","TRANSDERMAL",3.0,"BASELINE",1.0,"2013-05-14","2013-05-28",1.0,15.0],["CDISCPILOT01","EX","01-706-1049",2.0,"XANOMELINE",81.0,"mg","PATCH","QD","TRANSDERMAL",4.0,"WEEK 2",14.0,"2013-05-29","2013-06-18",16.0,36.0],["CDISCPILOT01","EX","01-706-1384",1.0,"XANOMELINE",54.0,"mg","PATCH","QD","TRANSDERMAL",3.0,"BASELINE",1.0,"2012-09-15","2012-09-24",1.0,10.0],["CDISCPILOT01","EX","01-707-1037",1.0,"XANOMELINE",54.0,"mg","PATCH","QD","TRANSDERMAL",3.0,"BASELINE",1.0,"2013-12-20","2013-12-24",1.0,5.0],["CDISCPILOT01","EX","01-707-1206",1.0,"PLACEBO",0.0,"mg","PATCH","QD","TRANSDERMAL",3.0,"BASELINE",1.0,"2013-10-28","2013-11-12",1.0,16.0],["CDISCPILOT01","EX","01-707-1206",2.0,"PLACEBO",0.0,"mg","PATCH","QD","TRANSDERMAL",4.0,"WEEK 2",14.0,"2013-11-13","2014-04-13",17.0,168.0],["CDISCPILOT01","EX","01-707-1206",3.0,"PLACEBO",0.0,"mg","PATCH","QD","TRANSDERMAL",12.0,"WEEK 24",168.0,"2014-04-14","2014-04-26",169.0,181.0],["CDISCPILOT01","EX","01-708-1019",1.0,"XANOMELINE",54.0,"mg","PATCH","QD","TRANSDERMAL",3.0,"BASELINE",1.0,"2013-12-20","2014-01-01",1.0,13.0],["CDISCPILOT01","EX","01-708-1032",1.0,"XANOMELINE",54.0,"mg","PATCH","QD","TRANSDERMAL",3.0,"BASELINE",1.0,"2013-02-09","2013-02-23",1.0,15.0],["CDISCPILOT01","EX","01-708-1032",2.0,"XANOMELINE",54.0,"mg","PATCH","QD","TRANSDERMAL",4.0,"WEEK 2",14.0,"2013-02-24","2013-03-01",16.0,21.0],["CDISCPILOT01","EX","01-708-1084",1.0,"XANOMELINE",54.0,"mg","PATCH","QD","TRANSDERMAL",3.0,"BASELINE",1.0,"2013-05-09","2013-05-23",1.0,15.0],["CDISCPILOT01","EX","01-708-1084",2.0,"XANOMELINE",54.0,"mg","PATCH","QD","TRANSDERMAL",4.0,"WEEK 2",14.0,"2013-05-24","2013-10-28",16.0,173.0],["CDISCPILOT01","EX","01-708-1084",3.0,"XANOMELINE",54.0,"mg","PATCH","QD","TRANSDERMAL",12.0,"WEEK 24",168.0,"2013-10-29","2013-11-11",174.0,187.0],["CDISCPILOT01","EX","01-708-1087",1.0,"PLACEBO",0.0,"mg","PATCH","QD","TRANSDERMAL",3.0,"BASELINE",1.0,"2012-10-22","2012-11-05",1.0,15.0],["CDISCPILOT01","EX","01-708-1087",2.0,"PLACEBO",0.0,"mg","PATCH","QD","TRANSDERMAL",4.0,"WEEK 2",14.0,"2012-11-06","2013-04-10",16.0,171.0],["CDISCPILOT01","EX","01-708-1087",3.0,"PLACEBO",0.0,"mg","PATCH","QD","TRANSDERMAL",12.0,"WEEK 24",168.0,"2013-04-11","2013-04-28",172.0,189.0],["CDISCPILOT01","EX","01-708-1158",1.0,"PLACEBO",0.0,"mg","PATCH","QD","TRANSDERMAL",3.0,"BASELINE",1.0,"2014-02-08","2014-02-26",1.0,19.0],["CDISCPILOT01","EX","01-708-1158",2.0,"PLACEBO",0.0,"mg","PATCH","QD","TRANSDERMAL",4.0,"WEEK 2",14.0,"2014-02-27","2014-03-21",20.0,42.0],["CDISCPILOT01","EX","01-708-1171",1.0,"PLACEBO",0.0,"mg","PATCH","QD","TRANSDERMAL",3.0,"BASELINE",1.0,"2012-12-06","2012-12-18",1.0,13.0],["CDISCPILOT01","EX","01-708-1171",2.0,"PLACEBO",0.0,"mg","PATCH","QD","TRANSDERMAL",4.0,"WEEK 2",14.0,"2012-12-19","2013-05-20",14.0,166.0],["CDISCPILOT01","EX","01-708-1171",3.0,"PLACEBO",0.0,"mg","PATCH","QD","TRANSDERMAL",12.0,"WEEK 24",168.0,"2013-05-21","2013-06-04",167.0,181.0],["CDISCPILOT01","EX","01-708-1178",1.0,"XANOMELINE",54.0,"mg","PATCH","QD","TRANSDERMAL",3.0,"BASELINE",1.0,"2013-12-29","2014-01-18",1.0,21.0],["CDISCPILOT01","EX","01-708-1178",2.0,"XANOMELINE",81.0,"mg","PATCH","QD","TRANSDERMAL",4.0,"WEEK 2",14.0,"2014-01-19","2014-04-06",22.0,99.0],["CDISCPILOT01","EX","01-708-1213",1.0,"XANOMELINE",54.0,"mg","PATCH","QD","TRANSDERMAL",3.0,"BASELINE",1.0,"2013-02-09","2013-02-22",1.0,14.0],["CDISCPILOT01","EX","01-708-1216",1.0,"XANOMELINE",54.0,"mg","PATCH","QD","TRANSDERMAL",3.0,"BASELINE",1.0,"2012-10-24","2012-11-08",1.0,16.0],["CDISCPILOT01","EX","01-708-1216",2.0,"XANOMELINE",81.0,"mg","PATCH","QD","TRANSDERMAL",4.0,"WEEK 2",14.0,"2012-11-09","2012-11-29",17.0,37.0],["CDISCPILOT01","EX","01-708-1236",1.0,"XANOMELINE",54.0,"mg","PATCH","QD","TRANSDERMAL",3.0,"BASELINE",1.0,"2013-09-21","2013-09-21",1.0,1.0],["CDISCPILOT01","EX","01-708-1253",1.0,"PLACEBO",0.0,"mg","PATCH","QD","TRANSDERMAL",3.0,"BASELINE",1.0,"2013-05-07","2013-05-21",1.0,15.0],["CDISCPILOT01","EX","01-708-1253",2.0,"PLACEBO",0.0,"mg","PATCH","QD","TRANSDERMAL",4.0,"WEEK 2",14.0,"2013-05-22","2013-10-27",16.0,174.0],["CDISCPILOT01","EX","01-708-1253",3.0,"PLACEBO",0.0,"mg","PATCH","QD","TRANSDERMAL",12.0,"WEEK 24",168.0,"2013-10-28","2013-11-05",175.0,183.0],["CDISCPILOT01","EX","01-708-1272",1.0,"XANOMELINE",54.0,"mg","PATCH","QD","TRANSDERMAL",3.0,"BASELINE",1.0,"2013-02-06","2013-02-21",1.0,16.0],["CDISCPILOT01","EX","01-708-1272",2.0,"XANOMELINE",54.0,"mg","PATCH","QD","TRANSDERMAL",4.0,"WEEK 2",14.0,"2013-02-22","2013-03-22",17.0,45.0],["CDISCPILOT01","EX","01-708-1286",1.0,"PLACEBO",0.0,"mg","PATCH","QD","TRANSDERMAL",3.0,"BASELINE",1.0,"2013-09-10","2013-09-23",1.0,14.0],["CDISCPILOT01","EX","01-708-1286",2.0,"PLACEBO",0.0,"mg","PATCH","QD","TRANSDERMAL",4.0,"WEEK 2",14.0,"2013-09-24","2014-02-23",15.0,167.0],["CDISCPILOT01","EX","01-708-1286",3.0,"PLACEBO",0.0,"mg","PATCH","QD","TRANSDERMAL",12.0,"WEEK 24",168.0,"2014-02-24","2014-03-08",168.0,180.0],["CDISCPILOT01","EX","01-708-1296",1.0,"PLACEBO",0.0,"mg","PATCH","QD","TRANSDERMAL",3.0,"BASELINE",1.0,"2013-06-14","2013-06-27",1.0,14.0],["CDISCPILOT01","EX","01-708-1296",2.0,"PLACEBO",0.0,"mg","PATCH","QD","TRANSDERMAL",4.0,"WEEK 2",14.0,"2013-06-28","2013-11-27",15.0,167.0],["CDISCPILOT01","EX","01-708-1296",3.0,"PLACEBO",0.0,"mg","PATCH","QD","TRANSDERMAL",12.0,"WEEK 24",168.0,"2013-11-28","2013-12-12",168.0,182.0],["CDISCPILOT01","EX","01-708-1297",1.0,"XANOMELINE",54.0,"mg","PATCH","QD","TRANSDERMAL",3.0,"BASELINE",1.0,"2013-01-25","2013-02-08",1.0,15.0],["CDISCPILOT01","EX","01-708-1297",2.0,"XANOMELINE",54.0,"mg","PATCH","QD","TRANSDERMAL",4.0,"WEEK 2",14.0,"2013-02-09","2013-05-03",16.0,99.0],["CDISCPILOT01","EX","01-708-1316",1.0,"PLACEBO",0.0,"mg","PATCH","QD","TRANSDERMAL",3.0,"BASELINE",1.0,"2013-08-23","2013-09-05",1.0,14.0],["CDISCPILOT01","EX","01-708-1316",2.0,"PLACEBO",0.0,"mg","PATCH","QD","TRANSDERMAL",4.0,"WEEK 2",14.0,"2013-09-06","2014-02-15",15.0,177.0],["CDISCPILOT01","EX","01-708-1316",3.0,"PLACEBO",0.0,"mg","PATCH","QD","TRANSDERMAL",12.0,"WEEK 24",168.0,"2014-02-16","2014-03-01",178.0,191.0],["CDISCPILOT01","EX","01-708-1336",1.0,"XANOMELINE",54.0,"mg","PATCH","QD","TRANSDERMAL",3.0,"BASELINE",1.0,"2012-12-07","2012-12-21",1.0,15.0],["CDISCPILOT01","EX","01-708-1336",2.0,"XANOMELINE",81.0,"mg","PATCH","QD","TRANSDERMAL",4.0,"WEEK 2",14.0,"2012-12-22","2013-05-22",16.0,167.0],["CDISCPILOT01","EX","01-708-1336",3.0,"XANOMELINE",54.0,"mg","PATCH","QD","TRANSDERMAL",12.0,"WEEK 24",168.0,"2013-05-23","2013-06-05",168.0,181.0],["CDISCPILOT01","EX","01-708-1342",1.0,"PLACEBO",0.0,"mg","PATCH","QD","TRANSDERMAL",3.0,"BASELINE",1.0,"2012-12-29","2013-01-12",1.0,15.0],["CDISCPILOT01","EX","01-708-1342",2.0,"PLACEBO",0.0,"mg","PATCH","QD","TRANSDERMAL",4.0,"WEEK 2",14.0,"2013-01-13","2013-06-15",16.0,169.0],["CDISCPILOT01","EX","01-708-1342",3.0,"PLACEBO",0.0,"mg","PATCH","QD","TRANSDERMAL",12.0,"WEEK 24",168.0,"2013-06-16","2013-06-28",170.0,182.0],["CDISCPILOT01","EX","01-708-1347",1.0,"XANOMELINE",54.0,"mg","PATCH","QD","TRANSDERMAL",3.0,"BASELINE",1.0,"2013-04-20","2013-05-04",1.0,15.0],["CDISCPILOT01","EX","01-708-1347",2.0,"XANOMELINE",81.0,"mg","PATCH","QD","TRANSDERMAL",4.0,"WEEK 2",14.0,"2013-05-05","2013-06-18",16.0,60.0],["CDISCPILOT01","EX","01-708-1348",1.0,"XANOMELINE",54.0,"mg","PATCH","QD","TRANSDERMAL",3.0,"BASELINE",1.0,"2013-08-05","2013-08-19",1.0,15.0],["CDISCPILOT01","EX","01-708-1348",2.0,"XANOMELINE",54.0,"mg","PATCH","QD","TRANSDERMAL",4.0,"WEEK 2",14.0,"2013-08-20","2014-02-03",16.0,183.0],["CDISCPILOT01","EX","01-708-1348",3.0,"XANOMELINE",54.0,"mg","PATCH","QD","TRANSDERMAL",12.0,"WEEK 24",168.0,"2014-02-04","2014-02-13",184.0,193.0],["CDISCPILOT01","EX","01-708-1353",1.0,"XANOMELINE",54.0,"mg","PATCH","QD","TRANSDERMAL",3.0,"BASELINE",1.0,"2013-07-04","2013-07-18",1.0,15.0],["CDISCPILOT01","EX","01-708-1353",2.0,"XANOMELINE",54.0,"mg","PATCH","QD","TRANSDERMAL",4.0,"WEEK 2",14.0,"2013-07-19","2013-08-28",16.0,56.0],["CDISCPILOT01","EX","01-708-1372",1.0,"XANOMELINE",54.0,"mg","PATCH","QD","TRANSDERMAL",3.0,"BASELINE",1.0,"2013-04-12","2013-04-19",1.0,8.0],["CDISCPILOT01","EX","01-708-1378",1.0,"PLACEBO",0.0,"mg","PATCH","QD","TRANSDERMAL",3.0,"BASELINE",1.0,"2013-09-03","2013-09-21",1.0,19.0],["CDISCPILOT01","EX","01-708-1378",2.0,"PLACEBO",0.0,"mg","PATCH","QD","TRANSDERMAL",4.0,"WEEK 2",14.0,"2013-09-22","2014-01-28",20.0,148.0],["CDISCPILOT01","EX","01-708-1406",1.0,"XANOMELINE",54.0,"mg","PATCH","QD","TRANSDERMAL",3.0,"BASELINE",1.0,"2013-12-26","2014-01-09",1.0,15.0],["CDISCPILOT01","EX","01-708-1406",2.0,"XANOMELINE",81.0,"mg","PATCH","QD","TRANSDERMAL",4.0,"WEEK 2",14.0,"2014-01-10","2014-06-16",16.0,173.0],["CDISCPILOT01","EX","01-708-1406",3.0,"XANOMELINE",54.0,"mg","PATCH","QD","TRANSDERMAL",12.0,"WEEK 24",168.0,"2014-06-17","2014-07-02",174.0,189.0],["CDISCPILOT01","EX","01-708-1428",1.0,"XANOMELINE",54.0,"mg","PATCH","QD","TRANSDERMAL",3.0,"BASELINE",1.0,"2013-11-09","2013-11-23",1.0,15.0],["CDISCPILOT01","EX","01-708-1428",2.0,"XANOMELINE",54.0,"mg","PATCH","QD","TRANSDERMAL",4.0,"WEEK 2",14.0,"2013-11-24","2013-12-14",16.0,36.0],["CDISCPILOT01","EX","01-709-1001",1.0,"PLACEBO",0.0,"mg","PATCH","QD","TRANSDERMAL",3.0,"BASELINE",1.0,"2013-10-08","2013-10-22",1.0,15.0],["CDISCPILOT01","EX","01-709-1001",2.0,"PLACEBO",0.0,"mg","PATCH","QD","TRANSDERMAL",4.0,"WEEK 2",14.0,"2013-10-23","2014-03-17",16.0,161.0],["CDISCPILOT01","EX","01-709-1001",3.0,"PLACEBO",0.0,"mg","PATCH","QD","TRANSDERMAL",12.0,"WEEK 24",168.0,"2014-03-18","2014-04-08",162.0,183.0],["CDISCPILOT01","EX","01-709-1007",1.0,"XANOMELINE",54.0,"mg","PATCH","QD","TRANSDERMAL",3.0,"BASELINE",1.0,"2012-07-31","2012-08-18",1.0,19.0],["CDISCPILOT01","EX","01-709-1007",2.0,"XANOMELINE",54.0,"mg","PATCH","QD","TRANSDERMAL",4.0,"WEEK 2",14.0,"2012-08-19","2012-08-28",20.0,29.0],["CDISCPILOT01","EX","01-709-1020",1.0,"XANOMELINE",54.0,"mg","PATCH","QD","TRANSDERMAL",3.0,"BASELINE",1.0,"2012-12-01","2012-12-15",1.0,15.0],["CDISCPILOT01","EX","01-709-1020",2.0,"XANOMELINE",54.0,"mg","PATCH","QD","TRANSDERMAL",4.0,"WEEK 2",14.0,"2012-12-16","2013-05-18",16.0,169.0],["CDISCPILOT01","EX","01-709-1020",3.0,"XANOMELINE",54.0,"mg","PATCH","QD","TRANSDERMAL",12.0,"WEEK 24",168.0,"2013-05-19","2013-06-01",170.0,183.0],["CDISCPILOT01","EX","01-709-1029",1.0,"XANOMELINE",54.0,"mg","PATCH","QD","TRANSDERMAL",3.0,"BASELINE",1.0,"2012-12-25","2013-01-09",1.0,16.0],["CDISCPILOT01","EX","01-709-1029",2.0,"XANOMELINE",81.0,"mg","PATCH","QD","TRANSDERMAL",4.0,"WEEK 2",14.0,"2013-01-10","2013-06-12",17.0,170.0],["CDISCPILOT01","EX","01-709-1029",3.0,"XANOMELINE",54.0,"mg","PATCH","QD","TRANSDERMAL",12.0,"WEEK 24",168.0,"2013-06-13","2013-06-26",171.0,184.0],["CDISCPILOT01","EX","01-709-1081",1.0,"XANOMELINE",54.0,"mg","PATCH","QD","TRANSDERMAL",3.0,"BASELINE",1.0,"2014-01-18","2014-02-01",1.0,15.0],["CDISCPILOT01","EX","01-709-1081",2.0,"XANOMELINE",54.0,"mg","PATCH","QD","TRANSDERMAL",4.0,"WEEK 2",14.0,"2014-02-02","2014-04-27",16.0,100.0],["CDISCPILOT01","EX","01-709-1088",1.0,"PLACEBO",0.0,"mg","PATCH","QD","TRANSDERMAL",3.0,"BASELINE",1.0,"2014-04-12","2014-04-26",1.0,15.0],["CDISCPILOT01","EX","01-709-1088",2.0,"PLACEBO",0.0,"mg","PATCH","QD","TRANSDERMAL",4.0,"WEEK 2",14.0,"2014-04-27","2014-09-27",16.0,169.0],["CDISCPILOT01","EX","01-709-1088",3.0,"PLACEBO",0.0,"mg","PATCH","QD","TRANSDERMAL",12.0,"WEEK 24",168.0,"2014-09-28","2014-10-09",170.0,181.0],["CDISCPILOT01","EX","01-709-1099",1.0,"XANOMELINE",54.0,"mg","PATCH","QD","TRANSDERMAL",3.0,"BASELINE",1.0,"2013-10-25","2013-11-12",1.0,19.0],["CDISCPILOT01","EX","01-709-1099",2.0,"XANOMELINE",81.0,"mg","PATCH","QD","TRANSDERMAL",4.0,"WEEK 2",14.0,"2013-11-13","2014-04-11",20.0,169.0],["CDISCPILOT01","EX","01-709-1099",3.0,"XANOMELINE",54.0,"mg","PATCH","QD","TRANSDERMAL",12.0,"WEEK 24",168.0,"2014-04-12","2014-04-25",170.0,183.0],["CDISCPILOT01","EX","01-709-1102",1.0,"XANOMELINE",54.0,"mg","PATCH","QD","TRANSDERMAL",3.0,"BASELINE",1.0,"2013-01-15","2013-01-31",1.0,17.0],["CDISCPILOT01","EX","01-709-1102",2.0,"XANOMELINE",54.0,"mg","PATCH","QD","TRANSDERMAL",4.0,"WEEK 2",14.0,"2013-02-01","2013-03-27",18.0,72.0],["CDISCPILOT01","EX","01-709-1168",1.0,"XANOMELINE",54.0,"mg","PATCH","QD","TRANSDERMAL",3.0,"BASELINE",1.0,"2013-08-02","2013-08-17",1.0,16.0],["CDISCPILOT01","EX","01-709-1168",2.0,"XANOMELINE",81.0,"mg","PATCH","QD","TRANSDERMAL",4.0,"WEEK 2",14.0,"2013-08-18","2013-09-26",17.0,56.0],["CDISCPILOT01","EX","01-709-1217",1.0,"XANOMELINE",54.0,"mg","PATCH","QD","TRANSDERMAL",3.0,"BASELINE",1.0,"2013-03-04","2013-03-19",1.0,16.0],["CDISCPILOT01","EX","01-709-1217",2.0,"XANOMELINE",54.0,"mg","PATCH","QD","TRANSDERMAL",4.0,"WEEK 2",14.0,"2013-03-20","2013-06-11",17.0,100.0],["CDISCPILOT01","EX","01-709-1238",1.0,"XANOMELINE",54.0,"mg","PATCH","QD","TRANSDERMAL",3.0,"BASELINE",1.0,"2013-05-15","2013-05-29",1.0,15.0],["CDISCPILOT01","EX","01-709-1238",2.0,"XANOMELINE",81.0,"mg","PATCH","QD","TRANSDERMAL",4.0,"WEEK 2",14.0,"2013-05-30","2013-08-06",16.0,84.0],["CDISCPILOT01","EX","01-709-1259",1.0,"PLACEBO",0.0,"mg","PATCH","QD","TRANSDERMAL",3.0,"BASELINE",1.0,"2013-01-26","2013-02-10",1.0,16.0],["CDISCPILOT01","EX","01-709-1259",2.0,"PLACEBO",0.0,"mg","PATCH","QD","TRANSDERMAL",4.0,"WEEK 2",14.0,"2013-02-11","2013-06-13",17.0,139.0],["CDISCPILOT01","EX","01-709-1285",1.0,"XANOMELINE",54.0,"mg","PATCH","QD","TRANSDERMAL",3.0,"BASELINE",1.0,"2013-03-24","2013-04-08",1.0,16.0],["CDISCPILOT01","EX","01-709-1285",2.0,"XANOMELINE",54.0,"mg","PATCH","QD","TRANSDERMAL",4.0,"WEEK 2",14.0,"2013-04-09","2013-05-23",17.0,61.0],["CDISCPILOT01","EX","01-709-1301",1.0,"PLACEBO",0.0,"mg","PATCH","QD","TRANSDERMAL",3.0,"BASELINE",1.0,"2013-07-19","2013-08-02",1.0,15.0],["CDISCPILOT01","EX","01-709-1301",2.0,"PLACEBO",0.0,"mg","PATCH","QD","TRANSDERMAL",4.0,"WEEK 2",14.0,"2013-08-03","2014-01-04",16.0,170.0],["CDISCPILOT01","EX","01-709-1301",3.0,"PLACEBO",0.0,"mg","PATCH","QD","TRANSDERMAL",12.0,"WEEK 24",168.0,"2014-01-05","2014-01-17",171.0,183.0],["CDISCPILOT01","EX","01-709-1306",1.0,"PLACEBO",0.0,"mg","PATCH","QD","TRANSDERMAL",3.0,"BASELINE",1.0,"2014-02-03","2014-02-19",1.0,17.0],["CDISCPILOT01","EX","01-709-1306",2.0,"PLACEBO",0.0,"mg","PATCH","QD","TRANSDERMAL",4.0,"WEEK 2",14.0,"2014-02-20","2014-06-16",18.0,134.0],["CDISCPILOT01","EX","01-709-1309",1.0,"XANOMELINE",54.0,"mg","PATCH","QD","TRANSDERMAL",3.0,"BASELINE",1.0,"2013-06-19","2013-07-01",1.0,13.0],["CDISCPILOT01","EX","01-709-1309",2.0,"XANOMELINE",81.0,"mg","PATCH","QD","TRANSDERMAL",4.0,"WEEK 2",14.0,"2013-07-02","2013-12-05",14.0,170.0],["CDISCPILOT01","EX","01-709-1309",3.0,"XANOMELINE",54.0,"mg","PATCH","QD","TRANSDERMAL",12.0,"WEEK 24",168.0,"2013-12-06","2013-12-19",171.0,184.0],["CDISCPILOT01","EX","01-709-1312",1.0,"PLACEBO",0.0,"mg","PATCH","QD","TRANSDERMAL",3.0,"BASELINE",1.0,"2014-04-20","2014-05-10",1.0,21.0],["CDISCPILOT01","EX","01-709-1312",2.0,"PLACEBO",0.0,"mg","PATCH","QD","TRANSDERMAL",4.0,"WEEK 2",14.0,"2014-05-11","2014-10-05",22.0,169.0],["CDISCPILOT01","EX","01-709-1312",3.0,"PLACEBO",0.0,"mg","PATCH","QD","TRANSDERMAL",12.0,"WEEK 24",168.0,"2014-10-06","2014-10-19",170.0,183.0],["CDISCPILOT01","EX","01-709-1326",1.0,"XANOMELINE",54.0,"mg","PATCH","QD","TRANSDERMAL",3.0,"BASELINE",1.0,"2013-04-05","2013-04-18",1.0,14.0],["CDISCPILOT01","EX","01-709-1326",2.0,"XANOMELINE",54.0,"mg","PATCH","QD","TRANSDERMAL",4.0,"WEEK 2",14.0,"2013-04-19","2013-09-20",15.0,169.0],["CDISCPILOT01","EX","01-709-1326",3.0,"XANOMELINE",54.0,"mg","PATCH","QD","TRANSDERMAL",12.0,"WEEK 24",168.0,"2013-09-21","2013-10-02",170.0,181.0],["CDISCPILOT01","EX","01-709-1329",1.0,"XANOMELINE",54.0,"mg","PATCH","QD","TRANSDERMAL",3.0,"BASELINE",1.0,"2013-08-15","2013-08-25",1.0,11.0],["CDISCPILOT01","EX","01-709-1339",1.0,"PLACEBO",0.0,"mg","PATCH","QD","TRANSDERMAL",3.0,"BASELINE",1.0,"2012-12-23","2013-01-05",1.0,14.0],["CDISCPILOT01","EX","01-709-1339",2.0,"PLACEBO",0.0,"mg","PATCH","QD","TRANSDERMAL",4.0,"WEEK 2",14.0,"2013-01-06","2013-06-08",15.0,168.0],["CDISCPILOT01","EX","01-709-1339",3.0,"PLACEBO",0.0,"mg","PATCH","QD","TRANSDERMAL",12.0,"WEEK 24",168.0,"2013-06-09","2013-06-24",169.0,184.0],["CDISCPILOT01","EX","01-709-1424",1.0,"XANOMELINE",54.0,"mg","PATCH","QD","TRANSDERMAL",3.0,"BASELINE",1.0,"2013-03-03","2013-03-07",1.0,5.0],["CDISCPILOT01","EX","01-710-1002",1.0,"XANOMELINE",54.0,"mg","PATCH","QD","TRANSDERMAL",3.0,"BASELINE",1.0,"2014-01-14","2014-01-18",1.0,5.0],["CDISCPILOT01","EX","01-710-1006",1.0,"XANOMELINE",54.0,"mg","PATCH","QD","TRANSDERMAL",3.0,"BASELINE",1.0,"2013-02-10","2013-02-22",1.0,13.0],["CDISCPILOT01","EX","01-710-1006",2.0,"XANOMELINE",81.0,"mg","PATCH","QD","TRANSDERMAL",4.0,"WEEK 2",14.0,"2013-02-23","2013-07-27",14.0,168.0],["CDISCPILOT01","EX","01-710-1006",3.0,"XANOMELINE",54.0,"mg","PATCH","QD","TRANSDERMAL",12.0,"WEEK 24",168.0,"2013-07-28","2013-08-09",169.0,181.0],["CDISCPILOT01","EX","01-710-1021",1.0,"XANOMELINE",54.0,"mg","PATCH","QD","TRANSDERMAL",3.0,"BASELINE",1.0,"2013-09-27","2013-10-11",1.0,15.0],["CDISCPILOT01","EX","01-710-1021",2.0,"XANOMELINE",81.0,"mg","PATCH","QD","TRANSDERMAL",4.0,"WEEK 2",14.0,"2013-10-12","2013-10-29",16.0,33.0],["CDISCPILOT01","EX","01-710-1027",1.0,"PLACEBO",0.0,"mg","PATCH","QD","TRANSDERMAL",3.0,"BASELINE",1.0,"2014-02-28","2014-03-14",1.0,15.0],["CDISCPILOT01","EX","01-710-1027",2.0,"PLACEBO",0.0,"mg","PATCH","QD","TRANSDERMAL",4.0,"WEEK 2",14.0,"2014-03-15","2014-08-19",16.0,173.0],["CDISCPILOT01","EX","01-710-1027",3.0,"PLACEBO",0.0,"mg","PATCH","QD","TRANSDERMAL",12.0,"WEEK 24",168.0,"2014-08-20","2014-08-29",174.0,183.0],["CDISCPILOT01","EX","01-710-1045",1.0,"XANOMELINE",54.0,"mg","PATCH","QD","TRANSDERMAL",3.0,"BASELINE",1.0,"2013-06-03","2013-06-17",1.0,15.0],["CDISCPILOT01","EX","01-710-1045",2.0,"XANOMELINE",54.0,"mg","PATCH","QD","TRANSDERMAL",4.0,"WEEK 2",14.0,"2013-06-18","2013-08-13",16.0,72.0],["CDISCPILOT01","EX","01-710-1053",1.0,"XANOMELINE",54.0,"mg","PATCH","QD","TRANSDERMAL",3.0,"BASELINE",1.0,"2012-12-26","2013-01-09",1.0,15.0],["CDISCPILOT01","EX","01-710-1053",2.0,"XANOMELINE",54.0,"mg","PATCH","QD","TRANSDERMAL",4.0,"WEEK 2",14.0,"2013-01-10","2013-02-10",16.0,47.0],["CDISCPILOT01","EX","01-710-1060",1.0,"PLACEBO",0.0,"mg","PATCH","QD","TRANSDERMAL",3.0,"BASELINE",1.0,"2013-01-01","2013-01-15",1.0,15.0],["CDISCPILOT01","EX","01-710-1060",2.0,"PLACEBO",0.0,"mg","PATCH","QD","TRANSDERMAL",4.0,"WEEK 2",14.0,"2013-01-16","2013-06-21",16.0,172.0],["CDISCPILOT01","EX","01-710-1060",3.0,"PLACEBO",0.0,"mg","PATCH","QD","TRANSDERMAL",12.0,"WEEK 24",168.0,"2013-06-22","2013-07-05",173.0,186.0],["CDISCPILOT01","EX","01-710-1070",1.0,"XANOMELINE",54.0,"mg","PATCH","QD","TRANSDERMAL",3.0,"BASELINE",1.0,"2012-09-08","2012-09-22",1.0,15.0],["CDISCPILOT01","EX","01-710-1070",2.0,"XANOMELINE",81.0,"mg","PATCH","QD","TRANSDERMAL",4.0,"WEEK 2",14.0,"2012-09-23","2013-01-22",16.0,137.0],["CDISCPILOT01","EX","01-710-1077",1.0,"PLACEBO",0.0,"mg","PATCH","QD","TRANSDERMAL",3.0,"BASELINE",1.0,"2013-11-17","2013-12-01",1.0,15.0],["CDISCPILOT01","EX","01-710-1077",2.0,"PLACEBO",0.0,"mg","PATCH","QD","TRANSDERMAL",4.0,"WEEK 2",14.0,"2013-12-02","2014-05-03",16.0,168.0],["CDISCPILOT01","EX","01-710-1077",3.0,"PLACEBO",0.0,"mg","PATCH","QD","TRANSDERMAL",12.0,"WEEK 24",168.0,"2014-05-04","2014-05-18",169.0,183.0],["CDISCPILOT01","EX","01-710-1078",1.0,"PLACEBO",0.0,"mg","PATCH","QD","TRANSDERMAL",3.0,"BASELINE",1.0,"2013-09-17","2013-10-06",1.0,20.0],["CDISCPILOT01","EX","01-710-1078",2.0,"PLACEBO",0.0,"mg","PATCH","QD","TRANSDERMAL",4.0,"WEEK 2",14.0,"2013-10-07","2014-03-08",21.0,173.0],["CDISCPILOT01","EX","01-710-1078",3.0,"PLACEBO",0.0,"mg","PATCH","QD","TRANSDERMAL",12.0,"WEEK 24",168.0,"2014-03-09","2014-03-23",174.0,188.0],["CDISCPILOT01","EX","01-710-1083",1.0,"PLACEBO",0.0,"mg","PATCH","QD","TRANSDERMAL",3.0,"BASELINE",1.0,"2013-07-22","2013-08-01",1.0,11.0],["CDISCPILOT01","EX","01-710-1137",1.0,"XANOMELINE",54.0,"mg","PATCH","QD","TRANSDERMAL",3.0,"BASELINE",1.0,"2013-10-11","2013-10-25",1.0,15.0],["CDISCPILOT01","EX","01-710-1137",2.0,"XANOMELINE",81.0,"mg","PATCH","QD","TRANSDERMAL",4.0,"WEEK 2",14.0,"2013-10-26","2013-11-13",16.0,34.0],["CDISCPILOT01","EX","01-710-1142",1.0,"XANOMELINE",54.0,"mg","PATCH","QD","TRANSDERMAL",3.0,"BASELINE",1.0,"2012-10-02","2012-10-16",1.0,15.0],["CDISCPILOT01","EX","01-710-1142",2.0,"XANOMELINE",81.0,"mg","PATCH","QD","TRANSDERMAL",4.0,"WEEK 2",14.0,"2012-10-17","2012-10-20",16.0,19.0],["CDISCPILOT01","EX","01-710-1154",1.0,"XANOMELINE",54.0,"mg","PATCH","QD","TRANSDERMAL",3.0,"BASELINE",1.0,"2014-03-29","2014-04-12",1.0,15.0],["CDISCPILOT01","EX","01-710-1154",2.0,"XANOMELINE",54.0,"mg","PATCH","QD","TRANSDERMAL",4.0,"WEEK 2",14.0,"2014-04-13","2014-04-27",16.0,30.0],["CDISCPILOT01","EX","01-710-1166",1.0,"XANOMELINE",54.0,"mg","PATCH","QD","TRANSDERMAL",3.0,"BASELINE",1.0,"2012-11-30","2012-12-14",1.0,15.0],["CDISCPILOT01","EX","01-710-1166",2.0,"XANOMELINE",54.0,"mg","PATCH","QD","TRANSDERMAL",4.0,"WEEK 2",14.0,"2012-12-15","2013-03-19",16.0,110.0],["CDISCPILOT01","EX","01-710-1183",1.0,"PLACEBO",0.0,"mg","PATCH","QD","TRANSDERMAL",3.0,"BASELINE",1.0,"2013-11-16","2013-11-30",1.0,15.0],["CDISCPILOT01","EX","01-710-1183",2.0,"PLACEBO",0.0,"mg","PATCH","QD","TRANSDERMAL",4.0,"WEEK 2",14.0,"2013-12-01","2014-05-03",16.0,169.0],["CDISCPILOT01","EX","01-710-1183",3.0,"PLACEBO",0.0,"mg","PATCH","QD","TRANSDERMAL",12.0,"WEEK 24",168.0,"2014-05-04","2014-05-17",170.0,183.0],["CDISCPILOT01","EX","01-710-1187",1.0,"XANOMELINE",54.0,"mg","PATCH","QD","TRANSDERMAL",3.0,"BASELINE",1.0,"2012-11-10","2012-11-24",1.0,15.0],["CDISCPILOT01","EX","01-710-1187",2.0,"XANOMELINE",81.0,"mg","PATCH","QD","TRANSDERMAL",4.0,"WEEK 2",14.0,"2012-11-25","2013-04-28",16.0,170.0],["CDISCPILOT01","EX","01-710-1187",3.0,"XANOMELINE",54.0,"mg","PATCH","QD","TRANSDERMAL",12.0,"WEEK 24",168.0,"2013-04-29","2013-05-12",171.0,184.0],["CDISCPILOT01","EX","01-710-1235",1.0,"XANOMELINE",54.0,"mg","PATCH","QD","TRANSDERMAL",3.0,"BASELINE",1.0,"2012-09-26","2012-10-10",1.0,15.0],["CDISCPILOT01","EX","01-710-1235",2.0,"XANOMELINE",54.0,"mg","PATCH","QD","TRANSDERMAL",4.0,"WEEK 2",14.0,"2012-10-11","2013-03-13",16.0,169.0],["CDISCPILOT01","EX","01-710-1235",3.0,"XANOMELINE",54.0,"mg","PATCH","QD","TRANSDERMAL",12.0,"WEEK 24",168.0,"2013-03-14","2013-03-27",170.0,183.0],["CDISCPILOT01","EX","01-710-1249",1.0,"XANOMELINE",54.0,"mg","PATCH","QD","TRANSDERMAL",3.0,"BASELINE",1.0,"2013-12-28","2014-01-11",1.0,15.0],["CDISCPILOT01","EX","01-710-1249",2.0,"XANOMELINE",81.0,"mg","PATCH","QD","TRANSDERMAL",4.0,"WEEK 2",14.0,"2014-01-12","2014-06-14",16.0,169.0],["CDISCPILOT01","EX","01-710-1249",3.0,"XANOMELINE",54.0,"mg","PATCH","QD","TRANSDERMAL",12.0,"WEEK 24",168.0,"2014-06-15","2014-06-28",170.0,183.0],["CDISCPILOT01","EX","01-710-1264",1.0,"PLACEBO",0.0,"mg","PATCH","QD","TRANSDERMAL",3.0,"BASELINE",1.0,"2013-06-13","2013-06-27",1.0,15.0],["CDISCPILOT01","EX","01-710-1264",2.0,"PLACEBO",0.0,"mg","PATCH","QD","TRANSDERMAL",4.0,"WEEK 2",14.0,"2013-06-28","2013-10-11",16.0,121.0],["CDISCPILOT01","EX","01-710-1270",1.0,"XANOMELINE",54.0,"mg","PATCH","QD","TRANSDERMAL",3.0,"BASELINE",1.0,"2014-02-12","2014-03-01",1.0,18.0],["CDISCPILOT01","EX","01-710-1271",1.0,"PLACEBO",0.0,"mg","PATCH","QD","TRANSDERMAL",3.0,"BASELINE",1.0,"2012-09-27","2012-10-12",1.0,16.0],["CDISCPILOT01","EX","01-710-1271",2.0,"PLACEBO",0.0,"mg","PATCH","QD","TRANSDERMAL",4.0,"WEEK 2",14.0,"2012-10-13","2012-11-21",17.0,56.0],["CDISCPILOT01","EX","01-710-1278",1.0,"XANOMELINE",54.0,"mg","PATCH","QD","TRANSDERMAL",3.0,"BASELINE",1.0,"2012-12-24","2013-01-07",1.0,15.0],["CDISCPILOT01","EX","01-710-1278",2.0,"XANOMELINE",81.0,"mg","PATCH","QD","TRANSDERMAL",4.0,"WEEK 2",14.0,"2013-01-08","2013-02-26",16.0,65.0],["CDISCPILOT01","EX","01-710-1300",1.0,"XANOMELINE",54.0,"mg","PATCH","QD","TRANSDERMAL",3.0,"BASELINE",1.0,"2012-12-15","2012-12-30",1.0,16.0],["CDISCPILOT01","EX","01-710-1300",2.0,"XANOMELINE",54.0,"mg","PATCH","QD","TRANSDERMAL",4.0,"WEEK 2",14.0,"2012-12-31","2013-02-15",17.0,63.0],["CDISCPILOT01","EX","01-710-1314",1.0,"PLACEBO",0.0,"mg","PATCH","QD","TRANSDERMAL",3.0,"BASELINE",1.0,"2013-04-24","2013-05-09",1.0,16.0],["CDISCPILOT01","EX","01-710-1314",2.0,"PLACEBO",0.0,"mg","PATCH","QD","TRANSDERMAL",4.0,"WEEK 2",14.0,"2013-05-10","2013-05-23",17.0,30.0],["CDISCPILOT01","EX","01-710-1315",1.0,"PLACEBO",0.0,"mg","PATCH","QD","TRANSDERMAL",3.0,"BASELINE",1.0,"2013-02-27","2013-03-13",1.0,15.0],["CDISCPILOT01","EX","01-710-1315",2.0,"PLACEBO",0.0,"mg","PATCH","QD","TRANSDERMAL",4.0,"WEEK 2",14.0,"2013-03-14","2013-07-06",16.0,130.0],["CDISCPILOT01","EX","01-710-1354",1.0,"XANOMELINE",54.0,"mg","PATCH","QD","TRANSDERMAL",3.0,"BASELINE",1.0,"2012-11-11","2012-11-25",1.0,15.0],["CDISCPILOT01","EX","01-710-1354",2.0,"XANOMELINE",81.0,"mg","PATCH","QD","TRANSDERMAL",4.0,"WEEK 2",14.0,"2012-11-26","2013-04-21",16.0,162.0],["CDISCPILOT01","EX","01-710-1354",3.0,"XANOMELINE",54.0,"mg","PATCH","QD","TRANSDERMAL",12.0,"WEEK 24",168.0,"2013-04-22","2013-05-01",163.0,172.0],["CDISCPILOT01","EX","01-710-1358",1.0,"XANOMELINE",54.0,"mg","PATCH","QD","TRANSDERMAL",3.0,"BASELINE",1.0,"2012-09-17","2012-10-01",1.0,15.0],["CDISCPILOT01","EX","01-710-1358",2.0,"XANOMELINE",54.0,"mg","PATCH","QD","TRANSDERMAL",4.0,"WEEK 2",14.0,"2012-10-02","2013-02-09",16.0,146.0],["CDISCPILOT01","EX","01-710-1368",1.0,"PLACEBO",0.0,"mg","PATCH","QD","TRANSDERMAL",3.0,"BASELINE",1.0,"2013-10-23","2013-11-06",1.0,15.0],["CDISCPILOT01","EX","01-710-1368",2.0,"PLACEBO",0.0,"mg","PATCH","QD","TRANSDERMAL",4.0,"WEEK 2",14.0,"2013-11-07","2014-04-09",16.0,169.0],["CDISCPILOT01","EX","01-710-1368",3.0,"PLACEBO",0.0,"mg","PATCH","QD","TRANSDERMAL",12.0,"WEEK 24",168.0,"2014-04-10","2014-04-24",170.0,184.0],["CDISCPILOT01","EX","01-710-1385",1.0,"XANOMELINE",54.0,"mg","PATCH","QD","TRANSDERMAL",3.0,"BASELINE",1.0,"2012-10-29","2012-11-12",1.0,15.0],["CDISCPILOT01","EX","01-710-1385",2.0,"XANOMELINE",54.0,"mg","PATCH","QD","TRANSDERMAL",4.0,"WEEK 2",14.0,"2012-11-13","2013-02-18",16.0,113.0],["CDISCPILOT01","EX","01-710-1408",1.0,"XANOMELINE",54.0,"mg","PATCH","QD","TRANSDERMAL",3.0,"BASELINE",1.0,"2013-01-05","2013-01-24",1.0,20.0],["CDISCPILOT01","EX","01-710-1408",2.0,"XANOMELINE",81.0,"mg","PATCH","QD","TRANSDERMAL",4.0,"WEEK 2",14.0,"2013-01-25","2013-06-28",21.0,175.0],["CDISCPILOT01","EX","01-710-1408",3.0,"XANOMELINE",54.0,"mg","PATCH","QD","TRANSDERMAL",12.0,"WEEK 24",168.0,"2013-06-29","2013-07-12",176.0,189.0],["CDISCPILOT01","EX","01-711-1012",1.0,"XANOMELINE",54.0,"mg","PATCH","QD","TRANSDERMAL",3.0,"BASELINE",1.0,"2013-04-03","2013-04-17",1.0,15.0],["CDISCPILOT01","EX","01-711-1012",2.0,"XANOMELINE",81.0,"mg","PATCH","QD","TRANSDERMAL",4.0,"WEEK 2",14.0,"2013-04-18","2013-04-29",16.0,27.0],["CDISCPILOT01","EX","01-711-1036",1.0,"PLACEBO",0.0,"mg","PATCH","QD","TRANSDERMAL",3.0,"BASELINE",1.0,"2012-07-29","2012-08-12",1.0,15.0],["CDISCPILOT01","EX","01-711-1036",2.0,"PLACEBO",0.0,"mg","PATCH","QD","TRANSDERMAL",4.0,"WEEK 2",14.0,"2012-08-13","2013-01-13",16.0,169.0],["CDISCPILOT01","EX","01-711-1036",3.0,"PLACEBO",0.0,"mg","PATCH","QD","TRANSDERMAL",12.0,"WEEK 24",168.0,"2013-01-14","2013-02-10",170.0,197.0],["CDISCPILOT01","EX","01-711-1143",1.0,"XANOMELINE",54.0,"mg","PATCH","QD","TRANSDERMAL",3.0,"BASELINE",1.0,"2013-04-03","2013-04-17",1.0,15.0],["CDISCPILOT01","EX","01-711-1143",2.0,"XANOMELINE",54.0,"mg","PATCH","QD","TRANSDERMAL",4.0,"WEEK 2",14.0,"2013-04-18","2013-05-30",16.0,58.0],["CDISCPILOT01","EX","01-711-1433",1.0,"XANOMELINE",54.0,"mg","PATCH","QD","TRANSDERMAL",3.0,"BASELINE",1.0,"2013-01-27","2013-02-05",1.0,10.0],["CDISCPILOT01","EX","01-713-1043",1.0,"XANOMELINE",54.0,"mg","PATCH","QD","TRANSDERMAL",3.0,"BASELINE",1.0,"2013-09-15","2013-09-30",1.0,16.0],["CDISCPILOT01","EX","01-713-1043",2.0,"XANOMELINE",54.0,"mg","PATCH","QD","TRANSDERMAL",4.0,"WEEK 2",14.0,"2013-10-01","2014-02-28",17.0,167.0],["CDISCPILOT01","EX","01-713-1043",3.0,"XANOMELINE",54.0,"mg","PATCH","QD","TRANSDERMAL",12.0,"WEEK 24",168.0,"2014-03-01","2014-03-24",168.0,191.0],["CDISCPILOT01","EX","01-713-1073",1.0,"XANOMELINE",54.0,"mg","PATCH","QD","TRANSDERMAL",3.0,"BASELINE",1.0,"2014-03-30","2014-04-14",1.0,16.0],["CDISCPILOT01","EX","01-713-1073",2.0,"XANOMELINE",54.0,"mg","PATCH","QD","TRANSDERMAL",4.0,"WEEK 2",14.0,"2014-04-15","2014-09-21",17.0,176.0],["CDISCPILOT01","EX","01-713-1073",3.0,"XANOMELINE",54.0,"mg","PATCH","QD","TRANSDERMAL",12.0,"WEEK 24",168.0,"2014-09-22","2014-10-05",177.0,190.0],["CDISCPILOT01","EX","01-713-1106",1.0,"XANOMELINE",54.0,"mg","PATCH","QD","TRANSDERMAL",3.0,"BASELINE",1.0,"2012-10-31","2012-11-15",1.0,16.0],["CDISCPILOT01","EX","01-713-1106",2.0,"XANOMELINE",81.0,"mg","PATCH","QD","TRANSDERMAL",4.0,"WEEK 2",14.0,"2012-11-16","2013-04-22",17.0,174.0],["CDISCPILOT01","EX","01-713-1106",3.0,"XANOMELINE",54.0,"mg","PATCH","QD","TRANSDERMAL",12.0,"WEEK 24",168.0,"2013-04-23","2013-05-06",175.0,188.0],["CDISCPILOT01","EX","01-713-1141",1.0,"XANOMELINE",54.0,"mg","PATCH","QD","TRANSDERMAL",3.0,"BASELINE",1.0,"2013-05-31","2013-06-14",1.0,15.0],["CDISCPILOT01","EX","01-713-1141",2.0,"XANOMELINE",81.0,"mg","PATCH","QD","TRANSDERMAL",4.0,"WEEK 2",14.0,"2013-06-15","2013-07-01",16.0,32.0],["CDISCPILOT01","EX","01-713-1179",1.0,"PLACEBO",0.0,"mg","PATCH","QD","TRANSDERMAL",3.0,"BASELINE",1.0,"2013-08-09","2013-08-24",1.0,16.0],["CDISCPILOT01","EX","01-713-1179",2.0,"PLACEBO",0.0,"mg","PATCH","QD","TRANSDERMAL",4.0,"WEEK 2",14.0,"2013-08-25","2014-01-24",17.0,169.0],["CDISCPILOT01","EX","01-713-1179",3.0,"PLACEBO",0.0,"mg","PATCH","QD","TRANSDERMAL",12.0,"WEEK 24",168.0,"2014-01-25","2014-02-05",170.0,181.0],["CDISCPILOT01","EX","01-713-1209",1.0,"XANOMELINE",54.0,"mg","PATCH","QD","TRANSDERMAL",3.0,"BASELINE",1.0,"2013-05-27","2013-06-14",1.0,19.0],["CDISCPILOT01","EX","01-713-1209",2.0,"XANOMELINE",81.0,"mg","PATCH","QD","TRANSDERMAL",4.0,"WEEK 2",14.0,"2013-06-15","2013-11-14",20.0,172.0],["CDISCPILOT01","EX","01-713-1209",3.0,"XANOMELINE",54.0,"mg","PATCH","QD","TRANSDERMAL",12.0,"WEEK 24",168.0,"2013-11-15","2013-11-22",173.0,180.0],["CDISCPILOT01","EX","01-713-1256",1.0,"PLACEBO",0.0,"mg","PATCH","QD","TRANSDERMAL",3.0,"BASELINE",1.0,"2012-09-19","2012-10-03",1.0,15.0],["CDISCPILOT01","EX","01-713-1256",2.0,"PLACEBO",0.0,"mg","PATCH","QD","TRANSDERMAL",4.0,"WEEK 2",14.0,"2012-10-04","2013-03-09",16.0,172.0],["CDISCPILOT01","EX","01-713-1256",3.0,"PLACEBO",0.0,"mg","PATCH","QD","TRANSDERMAL",12.0,"WEEK 24",168.0,"2013-03-10","2013-03-25",173.0,188.0],["CDISCPILOT01","EX","01-713-1269",1.0,"PLACEBO",0.0,"mg","PATCH","QD","TRANSDERMAL",3.0,"BASELINE",1.0,"2014-01-27","2014-02-10",1.0,15.0],["CDISCPILOT01","EX","01-713-1269",2.0,"PLACEBO",0.0,"mg","PATCH","QD","TRANSDERMAL",4.0,"WEEK 2",14.0,"2014-02-11","2014-07-13",16.0,168.0],["CDISCPILOT01","EX","01-713-1269",3.0,"PLACEBO",0.0,"mg","PATCH","QD","TRANSDERMAL",12.0,"WEEK 24",168.0,"2014-07-14","2014-07-28",169.0,183.0],["CDISCPILOT01","EX","01-713-1448",1.0,"XANOMELINE",54.0,"mg","PATCH","QD","TRANSDERMAL",3.0,"BASELINE",1.0,"2014-01-19","2014-02-01",1.0,14.0],["CDISCPILOT01","EX","01-713-1448",2.0,"XANOMELINE",54.0,"mg","PATCH","QD","TRANSDERMAL",4.0,"WEEK 2",14.0,"2014-02-02","2014-05-16",15.0,118.0],["CDISCPILOT01","EX","01-714-1035",1.0,"PLACEBO",0.0,"mg","PATCH","QD","TRANSDERMAL",3.0,"BASELINE",1.0,"2014-04-17","2014-05-01",1.0,15.0],["CDISCPILOT01","EX","01-714-1035",2.0,"PLACEBO",0.0,"mg","PATCH","QD","TRANSDERMAL",4.0,"WEEK 2",14.0,"2014-05-02","2014-10-02",16.0,169.0],["CDISCPILOT01","EX","01-714-1035",3.0,"PLACEBO",0.0,"mg","PATCH","QD","TRANSDERMAL",12.0,"WEEK 24",168.0,"2014-10-03","2014-10-16",170.0,183.0],["CDISCPILOT01","EX","01-714-1068",1.0,"XANOMELINE",54.0,"mg","PATCH","QD","TRANSDERMAL",3.0,"BASELINE",1.0,"2013-08-08","2013-08-22",1.0,15.0],["CDISCPILOT01","EX","01-714-1068",2.0,"XANOMELINE",54.0,"mg","PATCH","QD","TRANSDERMAL",4.0,"WEEK 2",14.0,"2013-08-23","2013-10-08",16.0,62.0],["CDISCPILOT01","EX","01-714-1195",1.0,"XANOMELINE",54.0,"mg","PATCH","QD","TRANSDERMAL",3.0,"BASELINE",1.0,"2013-04-26","2013-05-09",1.0,14.0],["CDISCPILOT01","EX","01-714-1195",2.0,"XANOMELINE",54.0,"mg","PATCH","QD","TRANSDERMAL",4.0,"WEEK 2",14.0,"2013-05-10","2013-10-10",15.0,168.0],["CDISCPILOT01","EX","01-714-1195",3.0,"XANOMELINE",54.0,"mg","PATCH","QD","TRANSDERMAL",12.0,"WEEK 24",168.0,"2013-10-11","2013-10-23",169.0,181.0],["CDISCPILOT01","EX","01-714-1288",1.0,"XANOMELINE",54.0,"mg","PATCH","QD","TRANSDERMAL",3.0,"BASELINE",1.0,"2013-12-04","2013-12-17",1.0,14.0],["CDISCPILOT01","EX","01-714-1288",2.0,"XANOMELINE",81.0,"mg","PATCH","QD","TRANSDERMAL",4.0,"WEEK 2",14.0,"2013-12-18","2014-05-27",15.0,175.0],["CDISCPILOT01","EX","01-714-1288",3.0,"XANOMELINE",54.0,"mg","PATCH","QD","TRANSDERMAL",12.0,"WEEK 24",168.0,"2014-05-28","2014-06-17",176.0,196.0],["CDISCPILOT01","EX","01-714-1375",1.0,"PLACEBO",0.0,"mg","PATCH","QD","TRANSDERMAL",3.0,"BASELINE",1.0,"2013-02-26","2013-03-19",1.0,22.0],["CDISCPILOT01","EX","01-714-1375",2.0,"PLACEBO",0.0,"mg","PATCH","QD","TRANSDERMAL",4.0,"WEEK 2",14.0,"2013-03-20","2013-08-23",23.0,179.0],["CDISCPILOT01","EX","01-714-1375",3.0,"PLACEBO",0.0,"mg","PATCH","QD","TRANSDERMAL",12.0,"WEEK 24",168.0,"2013-08-24","2013-09-07",180.0,194.0],["CDISCPILOT01","EX","01-714-1425",1.0,"XANOMELINE",54.0,"mg","PATCH","QD","TRANSDERMAL",3.0,"BASELINE",1.0,"2013-08-15","2013-08-19",1.0,5.0],["CDISCPILOT01","EX","01-715-1085",1.0,"XANOMELINE",54.0,"mg","PATCH","QD","TRANSDERMAL",3.0,"BASELINE",1.0,"2013-02-16","2013-03-04",1.0,17.0],["CDISCPILOT01","EX","01-715-1085",2.0,"XANOMELINE",54.0,"mg","PATCH","QD","TRANSDERMAL",4.0,"WEEK 2",14.0,"2013-03-05","2013-08-04",18.0,170.0],["CDISCPILOT01","EX","01-715-1085",3.0,"XANOMELINE",54.0,"mg","PATCH","QD","TRANSDERMAL",12.0,"WEEK 24",168.0,"2013-08-05","2013-08-18",171.0,184.0],["CDISCPILOT01","EX","01-715-1107",1.0,"XANOMELINE",54.0,"mg","PATCH","QD","TRANSDERMAL",3.0,"BASELINE",1.0,"2013-02-26","2013-03-12",1.0,15.0],["CDISCPILOT01","EX","01-715-1107",2.0,"XANOMELINE",54.0,"mg","PATCH","QD","TRANSDERMAL",4.0,"WEEK 2",14.0,"2013-03-13","2013-05-07",16.0,71.0],["CDISCPILOT01","EX","01-715-1155",1.0,"PLACEBO",0.0,"mg","PATCH","QD","TRANSDERMAL",3.0,"BASELINE",1.0,"2013-12-13","2013-12-27",1.0,15.0],["CDISCPILOT01","EX","01-715-1155",2.0,"PLACEBO",0.0,"mg","PATCH","QD","TRANSDERMAL",4.0,"WEEK 2",14.0,"2013-12-28","2014-01-25",16.0,44.0],["CDISCPILOT01","EX","01-715-1207",1.0,"PLACEBO",0.0,"mg","PATCH","QD","TRANSDERMAL",3.0,"BASELINE",1.0,"2012-11-18","2012-12-02",1.0,15.0],["CDISCPILOT01","EX","01-715-1207",2.0,"PLACEBO",0.0,"mg","PATCH","QD","TRANSDERMAL",4.0,"WEEK 2",14.0,"2012-12-03","2013-05-05",16.0,169.0],["CDISCPILOT01","EX","01-715-1207",3.0,"PLACEBO",0.0,"mg","PATCH","QD","TRANSDERMAL",12.0,"WEEK 24",168.0,"2013-05-06","2013-05-27",170.0,191.0],["CDISCPILOT01","EX","01-715-1319",1.0,"XANOMELINE",54.0,"mg","PATCH","QD","TRANSDERMAL",3.0,"BASELINE",1.0,"2013-02-17","2013-03-03",1.0,15.0],["CDISCPILOT01","EX","01-715-1319",2.0,"XANOMELINE",81.0,"mg","PATCH","QD","TRANSDERMAL",4.0,"WEEK 2",14.0,"2013-03-04","2013-03-05",16.0,17.0],["CDISCPILOT01","EX","01-715-1321",1.0,"XANOMELINE",54.0,"mg","PATCH","QD","TRANSDERMAL",3.0,"BASELINE",1.0,"2014-02-11","2014-02-26",1.0,16.0],["CDISCPILOT01","EX","01-715-1321",2.0,"XANOMELINE",81.0,"mg","PATCH","QD","TRANSDERMAL",4.0,"WEEK 2",14.0,"2014-02-27","2014-04-21",17.0,70.0],["CDISCPILOT01","EX","01-715-1397",1.0,"PLACEBO",0.0,"mg","PATCH","QD","TRANSDERMAL",3.0,"BASELINE",1.0,"2013-04-03","2013-04-18",1.0,16.0],["CDISCPILOT01","EX","01-715-1397",2.0,"PLACEBO",0.0,"mg","PATCH","QD","TRANSDERMAL",4.0,"WEEK 2",14.0,"2013-04-19","2013-09-18",17.0,169.0],["CDISCPILOT01","EX","01-715-1397",3.0,"PLACEBO",0.0,"mg","PATCH","QD","TRANSDERMAL",12.0,"WEEK 24",168.0,"2013-09-19","2013-10-02",170.0,183.0],["CDISCPILOT01","EX","01-715-1405",1.0,"XANOMELINE",54.0,"mg","PATCH","QD","TRANSDERMAL",3.0,"BASELINE",1.0,"2013-07-06","2013-07-07",1.0,2.0],["CDISCPILOT01","EX","01-716-1024",1.0,"PLACEBO",0.0,"mg","PATCH","QD","TRANSDERMAL",3.0,"BASELINE",1.0,"2012-07-09","2012-07-23",1.0,15.0],["CDISCPILOT01","EX","01-716-1024",2.0,"PLACEBO",0.0,"mg","PATCH","QD","TRANSDERMAL",4.0,"WEEK 2",14.0,"2012-07-24","2012-12-30",16.0,175.0],["CDISCPILOT01","EX","01-716-1024",3.0,"PLACEBO",0.0,"mg","PATCH","QD","TRANSDERMAL",12.0,"WEEK 24",168.0,"2012-12-31","2013-01-20",176.0,196.0],["CDISCPILOT01","EX","01-716-1026",1.0,"PLACEBO",0.0,"mg","PATCH","QD","TRANSDERMAL",3.0,"BASELINE",1.0,"2014-04-02","2014-04-18",1.0,17.0],["CDISCPILOT01","EX","01-716-1026",2.0,"PLACEBO",0.0,"mg","PATCH","QD","TRANSDERMAL",4.0,"WEEK 2",14.0,"2014-04-19","2014-09-27",18.0,179.0],["CDISCPILOT01","EX","01-716-1026",3.0,"PLACEBO",0.0,"mg","PATCH","QD","TRANSDERMAL",12.0,"WEEK 24",168.0,"2014-09-28","2014-10-16",180.0,198.0],["CDISCPILOT01","EX","01-716-1030",1.0,"XANOMELINE",54.0,"mg","PATCH","QD","TRANSDERMAL",3.0,"BASELINE",1.0,"2013-12-28","2014-01-02",1.0,6.0],["CDISCPILOT01","EX","01-716-1044",1.0,"PLACEBO",0.0,"mg","PATCH","QD","TRANSDERMAL",3.0,"BASELINE",1.0,"2013-04-27","2013-05-10",1.0,14.0],["CDISCPILOT01","EX","01-716-1044",2.0,"PLACEBO",0.0,"mg","PATCH","QD","TRANSDERMAL",4.0,"WEEK 2",14.0,"2013-05-11","2013-10-16",15.0,173.0],["CDISCPILOT01","EX","01-716-1044",3.0,"PLACEBO",0.0,"mg","PATCH","QD","TRANSDERMAL",12.0,"WEEK 24",168.0,"2013-10-17","2013-11-03",174.0,191.0],["CDISCPILOT01","EX","01-716-1063",1.0,"XANOMELINE",54.0,"mg","PATCH","QD","TRANSDERMAL",3.0,"BASELINE",1.0,"2013-05-09","2013-05-23",1.0,15.0],["CDISCPILOT01","EX","01-716-1063",2.0,"XANOMELINE",54.0,"mg","PATCH","QD","TRANSDERMAL",4.0,"WEEK 2",14.0,"2013-05-24","2013-08-25",16.0,109.0],["CDISCPILOT01","EX","01-716-1071",1.0,"XANOMELINE",54.0,"mg","PATCH","QD","TRANSDERMAL",3.0,"BASELINE",1.0,"2013-06-08","2013-06-22",1.0,15.0],["CDISCPILOT01","EX","01-716-1071",2.0,"XANOMELINE",81.0,"mg","PATCH","QD","TRANSDERMAL",4.0,"WEEK 2",14.0,"2013-06-23","2013-08-01",16.0,55.0],["CDISCPILOT01","EX","01-716-1094",1.0,"XANOMELINE",54.0,"mg","PATCH","QD","TRANSDERMAL",3.0,"BASELINE",1.0,"2012-12-19","2013-01-06",1.0,19.0],["CDISCPILOT01","EX","01-716-1094",2.0,"XANOMELINE",54.0,"mg","PATCH","QD","TRANSDERMAL",4.0,"WEEK 2",14.0,"2013-01-07","2013-01-24",20.0,37.0],["CDISCPILOT01","EX","01-716-1103",1.0,"XANOMELINE",54.0,"mg","PATCH","QD","TRANSDERMAL",3.0,"BASELINE",1.0,"2014-03-20","2014-04-05",1.0,17.0],["CDISCPILOT01","EX","01-716-1103",2.0,"XANOMELINE",54.0,"mg","PATCH","QD","TRANSDERMAL",4.0,"WEEK 2",14.0,"2014-04-06","2014-08-30",18.0,164.0],["CDISCPILOT01","EX","01-716-1103",3.0,"XANOMELINE",54.0,"mg","PATCH","QD","TRANSDERMAL",12.0,"WEEK 24",168.0,"2014-08-31","2014-09-20",165.0,185.0],["CDISCPILOT01","EX","01-716-1108",1.0,"PLACEBO",0.0,"mg","PATCH","QD","TRANSDERMAL",3.0,"BASELINE",1.0,"2013-02-12","2013-02-26",1.0,15.0],["CDISCPILOT01","EX","01-716-1108",2.0,"PLACEBO",0.0,"mg","PATCH","QD","TRANSDERMAL",4.0,"WEEK 2",14.0,"2013-02-27","2013-08-02",16.0,172.0],["CDISCPILOT01","EX","01-716-1108",3.0,"PLACEBO",0.0,"mg","PATCH","QD","TRANSDERMAL",12.0,"WEEK 24",168.0,"2013-08-03","2013-08-10",173.0,180.0],["CDISCPILOT01","EX","01-716-1151",1.0,"XANOMELINE",54.0,"mg","PATCH","QD","TRANSDERMAL",3.0,"BASELINE",1.0,"2013-02-01","2013-02-15",1.0,15.0],["CDISCPILOT01","EX","01-716-1151",2.0,"XANOMELINE",54.0,"mg","PATCH","QD","TRANSDERMAL",4.0,"WEEK 2",14.0,"2013-02-16","2013-05-11",16.0,100.0],["CDISCPILOT01","EX","01-716-1157",1.0,"XANOMELINE",54.0,"mg","PATCH","QD","TRANSDERMAL",3.0,"BASELINE",1.0,"2013-10-02","2013-10-16",1.0,15.0],["CDISCPILOT01","EX","01-716-1157",2.0,"XANOMELINE",54.0,"mg","PATCH","QD","TRANSDERMAL",4.0,"WEEK 2",14.0,"2013-10-17","2014-03-26",16.0,176.0],["CDISCPILOT01","EX","01-716-1157",3.0,"XANOMELINE",54.0,"mg","PATCH","QD","TRANSDERMAL",12.0,"WEEK 24",168.0,"2014-03-27","2014-04-04",177.0,185.0],["CDISCPILOT01","EX","01-716-1160",1.0,"PLACEBO",0.0,"mg","PATCH","QD","TRANSDERMAL",3.0,"BASELINE",1.0,"2013-04-05","2013-04-19",1.0,15.0],["CDISCPILOT01","EX","01-716-1160",2.0,"PLACEBO",0.0,"mg","PATCH","QD","TRANSDERMAL",4.0,"WEEK 2",14.0,"2013-04-20","2013-09-27",16.0,176.0],["CDISCPILOT01","EX","01-716-1160",3.0,"PLACEBO",0.0,"mg","PATCH","QD","TRANSDERMAL",12.0,"WEEK 24",168.0,"2013-09-28","2013-10-11",177.0,190.0],["CDISCPILOT01","EX","01-716-1167",1.0,"XANOMELINE",54.0,"mg","PATCH","QD","TRANSDERMAL",3.0,"BASELINE",1.0,"2012-10-08","2012-10-29",1.0,22.0],["CDISCPILOT01","EX","01-716-1167",2.0,"XANOMELINE",54.0,"mg","PATCH","QD","TRANSDERMAL",4.0,"WEEK 2",14.0,"2012-10-30","2013-03-24",23.0,168.0],["CDISCPILOT01","EX","01-716-1167",3.0,"XANOMELINE",54.0,"mg","PATCH","QD","TRANSDERMAL",12.0,"WEEK 24",168.0,"2013-03-25","2013-04-12",169.0,187.0],["CDISCPILOT01","EX","01-716-1177",1.0,"PLACEBO",0.0,"mg","PATCH","QD","TRANSDERMAL",3.0,"BASELINE",1.0,"2014-09-02","2014-09-16",1.0,15.0],["CDISCPILOT01","EX","01-716-1177",2.0,"PLACEBO",0.0,"mg","PATCH","QD","TRANSDERMAL",4.0,"WEEK 2",14.0,"2014-09-17","2015-02-17",16.0,169.0],["CDISCPILOT01","EX","01-716-1177",3.0,"PLACEBO",0.0,"mg","PATCH","QD","TRANSDERMAL",12.0,"WEEK 24",168.0,"2015-02-18","2015-03-05",170.0,185.0],["CDISCPILOT01","EX","01-716-1189",1.0,"XANOMELINE",54.0,"mg","PATCH","QD","TRANSDERMAL",3.0,"BASELINE",1.0,"2012-10-09","2012-10-24",1.0,16.0],["CDISCPILOT01","EX","01-716-1189",2.0,"XANOMELINE",81.0,"mg","PATCH","QD","TRANSDERMAL",4.0,"WEEK 2",14.0,"2012-10-25","2013-02-27",17.0,142.0],["CDISCPILOT01","EX","01-716-1229",1.0,"XANOMELINE",54.0,"mg","PATCH","QD","TRANSDERMAL",3.0,"BASELINE",1.0,"2013-02-20","2013-03-06",1.0,15.0],["CDISCPILOT01","EX","01-716-1229",2.0,"XANOMELINE",81.0,"mg","PATCH","QD","TRANSDERMAL",4.0,"WEEK 2",14.0,"2013-03-07","2013-03-31",16.0,40.0],["CDISCPILOT01","EX","01-716-1298",1.0,"XANOMELINE",54.0,"mg","PATCH","QD","TRANSDERMAL",3.0,"BASELINE",1.0,"2013-04-08","2013-04-22",1.0,15.0],["CDISCPILOT01","EX","01-716-1298",2.0,"XANOMELINE",54.0,"mg","PATCH","QD","TRANSDERMAL",4.0,"WEEK 2",14.0,"2013-04-23","2013-06-28",16.0,82.0],["CDISCPILOT01","EX","01-716-1308",1.0,"PLACEBO",0.0,"mg","PATCH","QD","TRANSDERMAL",3.0,"BASELINE",1.0,"2013-08-28","2013-09-12",1.0,16.0],["CDISCPILOT01","EX","01-716-1308",2.0,"PLACEBO",0.0,"mg","PATCH","QD","TRANSDERMAL",4.0,"WEEK 2",14.0,"2013-09-13","2013-10-07",17.0,41.0],["CDISCPILOT01","EX","01-716-1311",1.0,"XANOMELINE",54.0,"mg","PATCH","QD","TRANSDERMAL",3.0,"BASELINE",1.0,"2014-05-14","2014-05-28",1.0,15.0],["CDISCPILOT01","EX","01-716-1311",2.0,"XANOMELINE",54.0,"mg","PATCH","QD","TRANSDERMAL",4.0,"WEEK 2",14.0,"2014-05-29","2014-09-21",16.0,131.0],["CDISCPILOT01","EX","01-716-1364",1.0,"XANOMELINE",54.0,"mg","PATCH","QD","TRANSDERMAL",3.0,"BASELINE",1.0,"2013-07-04","2013-07-17",1.0,14.0],["CDISCPILOT01","EX","01-716-1364",2.0,"XANOMELINE",81.0,"mg","PATCH","QD","TRANSDERMAL",4.0,"WEEK 2",14.0,"2013-07-18","2013-12-23",15.0,173.0],["CDISCPILOT01","EX","01-716-1364",3.0,"XANOMELINE",54.0,"mg","PATCH","QD","TRANSDERMAL",12.0,"WEEK 24",168.0,"2013-12-24","2014-01-09",174.0,190.0],["CDISCPILOT01","EX","01-716-1373",1.0,"XANOMELINE",54.0,"mg","PATCH","QD","TRANSDERMAL",3.0,"BASELINE",1.0,"2012-12-14","2012-12-30",1.0,17.0],["CDISCPILOT01","EX","01-716-1373",2.0,"XANOMELINE",81.0,"mg","PATCH","QD","TRANSDERMAL",4.0,"WEEK 2",14.0,"2012-12-31","2013-02-27",18.0,76.0],["CDISCPILOT01","EX","01-716-1418",1.0,"XANOMELINE",54.0,"mg","PATCH","QD","TRANSDERMAL",3.0,"BASELINE",1.0,"2013-05-05","2013-05-19",1.0,15.0],["CDISCPILOT01","EX","01-716-1418",2.0,"XANOMELINE",81.0,"mg","PATCH","QD","TRANSDERMAL",4.0,"WEEK 2",14.0,"2013-05-20","2013-11-06",16.0,186.0],["CDISCPILOT01","EX","01-716-1418",3.0,"XANOMELINE",54.0,"mg","PATCH","QD","TRANSDERMAL",12.0,"WEEK 24",168.0,"2013-11-07","2013-11-20",187.0,200.0],["CDISCPILOT01","EX","01-716-1441",1.0,"PLACEBO",0.0,"mg","PATCH","QD","TRANSDERMAL",3.0,"BASELINE",1.0,"2014-01-22","2014-02-06",1.0,16.0],["CDISCPILOT01","EX","01-716-1441",2.0,"PLACEBO",0.0,"mg","PATCH","QD","TRANSDERMAL",4.0,"WEEK 2",14.0,"2014-02-07","2014-07-08",17.0,168.0],["CDISCPILOT01","EX","01-716-1441",3.0,"PLACEBO",0.0,"mg","PATCH","QD","TRANSDERMAL",12.0,"WEEK 24",168.0,"2014-07-09","2014-07-22",169.0,182.0],["CDISCPILOT01","EX","01-716-1447",1.0,"XANOMELINE",54.0,"mg","PATCH","QD","TRANSDERMAL",3.0,"BASELINE",1.0,"2013-12-16","2013-12-31",1.0,16.0],["CDISCPILOT01","EX","01-716-1447",2.0,"XANOMELINE",81.0,"mg","PATCH","QD","TRANSDERMAL",4.0,"WEEK 2",14.0,"2014-01-01","2014-06-07",17.0,174.0],["CDISCPILOT01","EX","01-716-1447",3.0,"XANOMELINE",54.0,"mg","PATCH","QD","TRANSDERMAL",12.0,"WEEK 24",168.0,"2014-06-08","2014-06-17",175.0,184.0],["CDISCPILOT01","EX","01-717-1004",1.0,"XANOMELINE",54.0,"mg","PATCH","QD","TRANSDERMAL",3.0,"BASELINE",1.0,"2014-01-14","2014-01-28",1.0,15.0],["CDISCPILOT01","EX","01-717-1004",2.0,"XANOMELINE",54.0,"mg","PATCH","QD","TRANSDERMAL",4.0,"WEEK 2",14.0,"2014-01-29","2014-07-01",16.0,169.0],["CDISCPILOT01","EX","01-717-1004",3.0,"XANOMELINE",54.0,"mg","PATCH","QD","TRANSDERMAL",12.0,"WEEK 24",168.0,"2014-07-02","2014-07-16",170.0,184.0],["CDISCPILOT01","EX","01-717-1109",1.0,"XANOMELINE",54.0,"mg","PATCH","QD","TRANSDERMAL",3.0,"BASELINE",1.0,"2014-01-27","2014-02-10",1.0,15.0],["CDISCPILOT01","EX","01-717-1109",2.0,"XANOMELINE",81.0,"mg","PATCH","QD","TRANSDERMAL",4.0,"WEEK 2",14.0,"2014-02-11","2014-07-18",16.0,173.0],["CDISCPILOT01","EX","01-717-1109",3.0,"XANOMELINE",54.0,"mg","PATCH","QD","TRANSDERMAL",12.0,"WEEK 24",168.0,"2014-07-19","2014-07-28",174.0,183.0],["CDISCPILOT01","EX","01-717-1174",1.0,"XANOMELINE",54.0,"mg","PATCH","QD","TRANSDERMAL",3.0,"BASELINE",1.0,"2013-01-22","2013-02-04",1.0,14.0],["CDISCPILOT01","EX","01-717-1174",2.0,"XANOMELINE",81.0,"mg","PATCH","QD","TRANSDERMAL",4.0,"WEEK 2",14.0,"2013-02-05","2013-07-07",15.0,167.0],["CDISCPILOT01","EX","01-717-1174",3.0,"XANOMELINE",54.0,"mg","PATCH","QD","TRANSDERMAL",12.0,"WEEK 24",168.0,"2013-07-08","2013-07-24",168.0,184.0],["CDISCPILOT01","EX","01-717-1201",1.0,"PLACEBO",0.0,"mg","PATCH","QD","TRANSDERMAL",3.0,"BASELINE",1.0,"2013-12-19","2014-01-03",1.0,16.0],["CDISCPILOT01","EX","01-717-1201",2.0,"PLACEBO",0.0,"mg","PATCH","QD","TRANSDERMAL",4.0,"WEEK 2",14.0,"2014-01-04","2014-02-21",17.0,65.0],["CDISCPILOT01","EX","01-717-1344",1.0,"PLACEBO",0.0,"mg","PATCH","QD","TRANSDERMAL",3.0,"BASELINE",1.0,"2014-01-11","2014-01-24",1.0,14.0],["CDISCPILOT01","EX","01-717-1344",2.0,"PLACEBO",0.0,"mg","PATCH","QD","TRANSDERMAL",4.0,"WEEK 2",14.0,"2014-01-25","2014-03-14",15.0,63.0],["CDISCPILOT01","EX","01-717-1357",1.0,"XANOMELINE",54.0,"mg","PATCH","QD","TRANSDERMAL",3.0,"BASELINE",1.0,"2013-05-01","2013-05-15",1.0,15.0],["CDISCPILOT01","EX","01-717-1357",2.0,"XANOMELINE",81.0,"mg","PATCH","QD","TRANSDERMAL",4.0,"WEEK 2",14.0,"2013-05-16","2013-10-14",16.0,167.0],["CDISCPILOT01","EX","01-717-1446",1.0,"XANOMELINE",54.0,"mg","PATCH","QD","TRANSDERMAL",3.0,"BASELINE",1.0,"2013-09-01","2013-09-16",1.0,16.0],["CDISCPILOT01","EX","01-717-1446",2.0,"XANOMELINE",54.0,"mg","PATCH","QD","TRANSDERMAL",4.0,"WEEK 2",14.0,"2013-09-17","2014-02-16",17.0,169.0],["CDISCPILOT01","EX","01-717-1446",3.0,"XANOMELINE",54.0,"mg","PATCH","QD","TRANSDERMAL",12.0,"WEEK 24",168.0,"2014-02-17","2014-03-03",170.0,184.0],["CDISCPILOT01","EX","01-718-1066",1.0,"XANOMELINE",54.0,"mg","PATCH","QD","TRANSDERMAL",3.0,"BASELINE",1.0,"2013-07-07","2013-07-16",1.0,10.0],["CDISCPILOT01","EX","01-718-1079",1.0,"XANOMELINE",54.0,"mg","PATCH","QD","TRANSDERMAL",3.0,"BASELINE",1.0,"2012-09-19","2012-10-03",1.0,15.0],["CDISCPILOT01","EX","01-718-1079",2.0,"XANOMELINE",54.0,"mg","PATCH","QD","TRANSDERMAL",4.0,"WEEK 2",14.0,"2012-10-04","2012-10-31",16.0,43.0],["CDISCPILOT01","EX","01-718-1101",1.0,"XANOMELINE",54.0,"mg","PATCH","QD","TRANSDERMAL",3.0,"BASELINE",1.0,"2013-02-17","2013-03-03",1.0,15.0],["CDISCPILOT01","EX","01-718-1101",2.0,"XANOMELINE",81.0,"mg","PATCH","QD","TRANSDERMAL",4.0,"WEEK 2",14.0,"2013-03-04","2013-07-31",16.0,165.0],["CDISCPILOT01","EX","01-718-1139",1.0,"PLACEBO",0.0,"mg","PATCH","QD","TRANSDERMAL",3.0,"BASELINE",1.0,"2013-05-19","2013-06-02",1.0,15.0],["CDISCPILOT01","EX","01-718-1139",2.0,"PLACEBO",0.0,"mg","PATCH","QD","TRANSDERMAL",4.0,"WEEK 2",14.0,"2013-06-03","2013-11-03",16.0,169.0],["CDISCPILOT01","EX","01-718-1139",3.0,"PLACEBO",0.0,"mg","PATCH","QD","TRANSDERMAL",12.0,"WEEK 24",168.0,"2013-11-04","2013-11-17",170.0,183.0],["CDISCPILOT01","EX","01-718-1150",1.0,"PLACEBO",0.0,"mg","PATCH","QD","TRANSDERMAL",3.0,"BASELINE",1.0,"2013-01-19","2013-02-02",1.0,15.0],["CDISCPILOT01","EX","01-718-1150",2.0,"PLACEBO",0.0,"mg","PATCH","QD","TRANSDERMAL",4.0,"WEEK 2",14.0,"2013-02-03","2013-07-07",16.0,170.0],["CDISCPILOT01","EX","01-718-1150",3.0,"PLACEBO",0.0,"mg","PATCH","QD","TRANSDERMAL",12.0,"WEEK 24",168.0,"2013-07-08","2013-07-29",171.0,192.0],["CDISCPILOT01","EX","01-718-1170",1.0,"XANOMELINE",54.0,"mg","PATCH","QD","TRANSDERMAL",3.0,"BASELINE",1.0,"2013-09-16","2013-09-29",1.0,14.0],["CDISCPILOT01","EX","01-718-1170",2.0,"XANOMELINE",54.0,"mg","PATCH","QD","TRANSDERMAL",4.0,"WEEK 2",14.0,"2013-09-30","2013-10-12",15.0,27.0],["CDISCPILOT01","EX","01-718-1172",1.0,"PLACEBO",0.0,"mg","PATCH","QD","TRANSDERMAL",3.0,"BASELINE",1.0,"2013-09-21","2013-10-05",1.0,15.0],["CDISCPILOT01","EX","01-718-1172",2.0,"PLACEBO",0.0,"mg","PATCH","QD","TRANSDERMAL",4.0,"WEEK 2",14.0,"2013-10-06","2013-11-29",16.0,70.0],["CDISCPILOT01","EX","01-718-1250",1.0,"XANOMELINE",54.0,"mg","PATCH","QD","TRANSDERMAL",3.0,"BASELINE",1.0,"2013-09-21","2013-10-03",1.0,13.0],["CDISCPILOT01","EX","01-718-1250",2.0,"XANOMELINE",54.0,"mg","PATCH","QD","TRANSDERMAL",4.0,"WEEK 2",14.0,"2013-10-04","2014-01-31",14.0,133.0],["CDISCPILOT01","EX","01-718-1254",1.0,"XANOMELINE",54.0,"mg","PATCH","QD","TRANSDERMAL",3.0,"BASELINE",1.0,"2013-07-10","2013-07-25",1.0,16.0],["CDISCPILOT01","EX","01-718-1254",2.0,"XANOMELINE",54.0,"mg","PATCH","QD","TRANSDERMAL",4.0,"WEEK 2",14.0,"2013-07-26","2013-12-26",17.0,170.0],["CDISCPILOT01","EX","01-718-1254",3.0,"XANOMELINE",54.0,"mg","PATCH","QD","TRANSDERMAL",12.0,"WEEK 24",168.0,"2013-12-27","2014-01-09",171.0,184.0],["CDISCPILOT01","EX","01-718-1328",1.0,"XANOMELINE",54.0,"mg","PATCH","QD","TRANSDERMAL",3.0,"BASELINE",1.0,"2013-02-01","2013-02-14",1.0,14.0],["CDISCPILOT01","EX","01-718-1328",2.0,"XANOMELINE",81.0,"mg","PATCH","QD","TRANSDERMAL",4.0,"WEEK 2",14.0,"2013-02-15","2013-04-18",15.0,77.0],["CDISCPILOT01","EX","01-718-1355",1.0,"PLACEBO",0.0,"mg","PATCH","QD","TRANSDERMAL",3.0,"BASELINE",1.0,"2013-02-28","2013-03-16",1.0,17.0],["CDISCPILOT01","EX","01-718-1355",2.0,"PLACEBO",0.0,"mg","PATCH","QD","TRANSDERMAL",4.0,"WEEK 2",14.0,"2013-03-17","2013-08-15",18.0,169.0],["CDISCPILOT01","EX","01-718-1355",3.0,"PLACEBO",0.0,"mg","PATCH","QD","TRANSDERMAL",12.0,"WEEK 24",168.0,"2013-08-16","2013-08-29",170.0,183.0],["CDISCPILOT01","EX","01-718-1371",1.0,"XANOMELINE",54.0,"mg","PATCH","QD","TRANSDERMAL",3.0,"BASELINE",1.0,"2013-04-26","2013-05-08",1.0,13.0],["CDISCPILOT01","EX","01-718-1371",2.0,"XANOMELINE",81.0,"mg","PATCH","QD","TRANSDERMAL",4.0,"WEEK 2",14.0,"2013-05-09","2013-08-01",14.0,98.0],["CDISCPILOT01","EX","01-718-1427",1.0,"XANOMELINE",54.0,"mg","PATCH","QD","TRANSDERMAL",3.0,"BASELINE",1.0,"2012-12-17","2012-12-31",1.0,15.0],["CDISCPILOT01","EX","01-718-1427",2.0,"XANOMELINE",81.0,"mg","PATCH","QD","TRANSDERMAL",4.0,"WEEK 2",14.0,"2013-01-01","2013-02-11",16.0,57.0]]}
