{"datasetJSONCreationDateTime":"2025-04-15T12:56:31","datasetJSONVersion":"1.1.0","fileOID":"./pilot5-submission/pilot5-input/adamdata/adadas","dbLastModifiedDateTime":"2025-04-15T12:56","originator":"R Submission Pilot 5","sourceSystem":{"name":"R on linux-gnu 6.5.0-1024-aws","version":"R version 4.4.3 (2025-02-28)"},"studyOID":"Pilot 5","metaDataVersionOID":"MDV.TDF_ADaM.ADaM-IG.1.1","metaDataRef":"./pilot5-submission/pilot5-input/adamdata/define.xml","itemGroupOID":"IG.ADADAS","records":12463,"name":"ADADAS","label":"ADAS-Cog Analysis","columns":[{"itemOID":"IT.ADADAS.STUDYID","name":"STUDYID","label":"Study Identifier","dataType":"string","length":12},{"itemOID":"IT.ADADAS.SITEID","name":"SITEID","label":"Study Site Identifier","dataType":"string","length":3},{"itemOID":"IT.ADADAS.SITEGR1","name":"SITEGR1","label":"Pooled Site Group 1","dataType":"string","length":3},{"itemOID":"IT.ADADAS.USUBJID","name":"USUBJID","label":"Unique Subject Identifier","dataType":"string","length":11,"keySequence":1},{"itemOID":"IT.ADADAS.TRTSDT","name":"TRTSDT","label":"Date of First Exposure to Treatment","dataType":"date","length":8,"displayFormat":"DATE9.","targetDataType":"integer"},{"itemOID":"IT.ADADAS.TRTEDT","name":"TRTEDT","label":"Date of Last Exposure to Treatment","dataType":"date","length":8,"displayFormat":"DATE9.","targetDataType":"integer"},{"itemOID":"IT.ADADAS.TRTP","name":"TRTP","label":"Planned Treatment","dataType":"string","length":20},{"itemOID":"IT.ADADAS.TRTPN","name":"TRTPN","label":"Planned Treatment (N)","dataType":"integer","length":8},{"itemOID":"IT.ADADAS.AGE","name":"AGE","label":"Age","dataType":"integer","length":8},{"itemOID":"IT.ADADAS.AGEGR1","name":"AGEGR1","label":"Pooled Age Group 1","dataType":"string","length":5},{"itemOID":"IT.ADADAS.AGEGR1N","name":"AGEGR1N","label":"Pooled Age Group 1 (N)","dataType":"integer","length":8},{"itemOID":"IT.ADADAS.RACE","name":"RACE","label":"Race","dataType":"string","length":32},{"itemOID":"IT.ADADAS.RACEN","name":"RACEN","label":"Race (N)","dataType":"integer","length":8},{"itemOID":"IT.ADADAS.SEX","name":"SEX","label":"Sex","dataType":"string","length":1},{"itemOID":"IT.ADADAS.ITTFL","name":"ITTFL","label":"Intent-To-Treat Population Flag","dataType":"string","length":1},{"itemOID":"IT.ADADAS.EFFFL","name":"EFFFL","label":"Efficacy Population Flag","dataType":"string","length":1},{"itemOID":"IT.ADADAS.COMP24FL","name":"COMP24FL","label":"Completers of Week 24 Population Flag","dataType":"string","length":1},{"itemOID":"IT.ADADAS.AVISIT","name":"AVISIT","label":"Analysis Visit","dataType":"string","length":16,"keySequence":3},{"itemOID":"IT.ADADAS.AVISITN","name":"AVISITN","label":"Analysis Visit (N)","dataType":"integer","length":8},{"itemOID":"IT.ADADAS.VISIT","name":"VISIT","label":"Visit Name","dataType":"string","length":19},{"itemOID":"IT.ADADAS.VISITNUM","name":"VISITNUM","label":"Visit Number","dataType":"float","length":8},{"itemOID":"IT.ADADAS.ADY","name":"ADY","label":"Analysis Relative Day","dataType":"integer","length":8},{"itemOID":"IT.ADADAS.ADT","name":"ADT","label":"Analysis Date","dataType":"date","length":8,"keySequence":4,"displayFormat":"DATE9.","targetDataType":"integer"},{"itemOID":"IT.ADADAS.PARAM","name":"PARAM","label":"Parameter","dataType":"string","length":100},{"itemOID":"IT.ADADAS.PARAMCD","name":"PARAMCD","label":"Parameter Code","dataType":"string","length":8,"keySequence":2},{"itemOID":"IT.ADADAS.PARAMN","name":"PARAMN","label":"Parameter (N)","dataType":"integer","length":8},{"itemOID":"IT.ADADAS.AVAL","name":"AVAL","label":"Analysis Value","dataType":"float","length":16},{"itemOID":"IT.ADADAS.BASE","name":"BASE","label":"Baseline Value","dataType":"integer","length":8},{"itemOID":"IT.ADADAS.CHG","name":"CHG","label":"Change from Baseline","dataType":"integer","length":8},{"itemOID":"IT.ADADAS.PCHG","name":"PCHG","label":"Percent Change from Baseline","dataType":"integer","length":8},{"itemOID":"IT.ADADAS.ABLFL","name":"ABLFL","label":"Baseline Record Flag","dataType":"string","length":1},{"itemOID":"IT.ADADAS.ANL01FL","name":"ANL01FL","label":"Analysis Flag 01","dataType":"string","length":1},{"itemOID":"IT.ADADAS.DTYPE","name":"DTYPE","label":"Derivation Type","dataType":"string","length":7},{"itemOID":"IT.ADADAS.AWRANGE","name":"AWRANGE","label":"Analysis Window Valid Relative Range","dataType":"string","length":9},{"itemOID":"IT.ADADAS.AWTARGET","name":"AWTARGET","label":"Analysis Window Target","dataType":"integer","length":8},{"itemOID":"IT.ADADAS.AWTDIFF","name":"AWTDIFF","label":"Analysis Window Diff from Target","dataType":"integer","length":8},{"itemOID":"IT.ADADAS.AWLO","name":"AWLO","label":"Analysis Window Beginning Timepoint","dataType":"integer","length":8},{"itemOID":"IT.ADADAS.AWHI","name":"AWHI","label":"Analysis Window Ending Timepoint","dataType":"integer","length":8},{"itemOID":"IT.ADADAS.AWU","name":"AWU","label":"Analysis Window Unit","dataType":"string","length":4},{"itemOID":"IT.ADADAS.QSSEQ","name":"QSSEQ","label":"Sequence Number","dataType":"integer","length":8}],"rows":[["CDISCPILOT01","701","701","01-701-1015","2014-01-02","2014-07-02","Placebo",0.0,63.0,"<65",1.0,"WHITE",1.0,"F","Y","Y","Y","Week 8",8.0,"WEEK 8",8.0,63.0,"2014-03-05","Word Recall Task","ACITM01",1.0,2.0,3.0,-1.0,-33.33333333333333,null,"Y",null,"2-84",56.0,7.0,2.0,84.0,"DAYS",5016.0],["CDISCPILOT01","701","701","01-701-1015","2014-01-02","2014-07-02","Placebo",0.0,63.0,"<65",1.0,"WHITE",1.0,"F","Y","Y","Y","Week 16",16.0,"WEEK 16",10.0,126.0,"2014-05-07","Word Recall Task","ACITM01",1.0,4.0,3.0,1.0,33.33333333333333,null,"Y",null,"85-140",112.0,14.0,85.0,140.0,"DAYS",5031.0],["CDISCPILOT01","701","701","01-701-1015","2014-01-02","2014-07-02","Placebo",0.0,63.0,"<65",1.0,"WHITE",1.0,"F","Y","Y","Y","Week 24",24.0,"WEEK 24",12.0,168.0,"2014-06-18","Word Recall Task","ACITM01",1.0,3.0,3.0,0.0,0.0,null,"Y",null,">140",168.0,0.0,141.0,null,"DAYS",5046.0],["CDISCPILOT01","701","701","01-701-1015","2014-01-02","2014-07-02","Placebo",0.0,63.0,"<65",1.0,"WHITE",1.0,"F","Y","Y","Y","Week 8",8.0,"WEEK 8",8.0,63.0,"2014-03-05","Naming Objects And Fingers (Refer To 5 C","ACITM02",2.0,0.0,1.0,-1.0,-100.0,null,"Y",null,"2-84",56.0,7.0,2.0,84.0,"DAYS",5017.0],["CDISCPILOT01","701","701","01-701-1015","2014-01-02","2014-07-02","Placebo",0.0,63.0,"<65",1.0,"WHITE",1.0,"F","Y","Y","Y","Week 16",16.0,"WEEK 16",10.0,126.0,"2014-05-07","Naming Objects And Fingers (Refer To 5 C","ACITM02",2.0,0.0,1.0,-1.0,-100.0,null,"Y",null,"85-140",112.0,14.0,85.0,140.0,"DAYS",5032.0],["CDISCPILOT01","701","701","01-701-1015","2014-01-02","2014-07-02","Placebo",0.0,63.0,"<65",1.0,"WHITE",1.0,"F","Y","Y","Y","Week 24",24.0,"WEEK 24",12.0,168.0,"2014-06-18","Naming Objects And Fingers (Refer To 5 C","ACITM02",2.0,0.0,1.0,-1.0,-100.0,null,"Y",null,">140",168.0,0.0,141.0,null,"DAYS",5047.0],["CDISCPILOT01","701","701","01-701-1015","2014-01-02","2014-07-02","Placebo",0.0,63.0,"<65",1.0,"WHITE",1.0,"F","Y","Y","Y","Week 8",8.0,"WEEK 8",8.0,63.0,"2014-03-05","Delayed Word Recall","ACITM03",3.0,3.0,3.0,0.0,0.0,null,"Y",null,"2-84",56.0,7.0,2.0,84.0,"DAYS",5018.0],["CDISCPILOT01","701","701","01-701-1015","2014-01-02","2014-07-02","Placebo",0.0,63.0,"<65",1.0,"WHITE",1.0,"F","Y","Y","Y","Week 16",16.0,"WEEK 16",10.0,126.0,"2014-05-07","Delayed Word Recall","ACITM03",3.0,1.0,3.0,-2.0,-66.66666666666666,null,"Y",null,"85-140",112.0,14.0,85.0,140.0,"DAYS",5033.0],["CDISCPILOT01","701","701","01-701-1015","2014-01-02","2014-07-02","Placebo",0.0,63.0,"<65",1.0,"WHITE",1.0,"F","Y","Y","Y","Week 24",24.0,"WEEK 24",12.0,168.0,"2014-06-18","Delayed Word Recall","ACITM03",3.0,2.0,3.0,-1.0,-33.33333333333333,null,"Y",null,">140",168.0,0.0,141.0,null,"DAYS",5048.0],["CDISCPILOT01","701","701","01-701-1015","2014-01-02","2014-07-02","Placebo",0.0,63.0,"<65",1.0,"WHITE",1.0,"F","Y","Y","Y","Week 8",8.0,"WEEK 8",8.0,63.0,"2014-03-05","Commands","ACITM04",4.0,0.0,0.0,0.0,null,null,"Y",null,"2-84",56.0,7.0,2.0,84.0,"DAYS",5019.0],["CDISCPILOT01","701","701","01-701-1015","2014-01-02","2014-07-02","Placebo",0.0,63.0,"<65",1.0,"WHITE",1.0,"F","Y","Y","Y","Week 16",16.0,"WEEK 16",10.0,126.0,"2014-05-07","Commands","ACITM04",4.0,0.0,0.0,0.0,null,null,"Y",null,"85-140",112.0,14.0,85.0,140.0,"DAYS",5034.0],["CDISCPILOT01","701","701","01-701-1015","2014-01-02","2014-07-02","Placebo",0.0,63.0,"<65",1.0,"WHITE",1.0,"F","Y","Y","Y","Week 24",24.0,"WEEK 24",12.0,168.0,"2014-06-18","Commands","ACITM04",4.0,0.0,0.0,0.0,null,null,"Y",null,">140",168.0,0.0,141.0,null,"DAYS",5049.0],["CDISCPILOT01","701","701","01-701-1015","2014-01-02","2014-07-02","Placebo",0.0,63.0,"<65",1.0,"WHITE",1.0,"F","Y","Y","Y","Week 8",8.0,"WEEK 8",8.0,63.0,"2014-03-05","Constructional Praxis","ACITM05",5.0,2.0,3.0,-1.0,-33.33333333333333,null,"Y",null,"2-84",56.0,7.0,2.0,84.0,"DAYS",5020.0],["CDISCPILOT01","701","701","01-701-1015","2014-01-02","2014-07-02","Placebo",0.0,63.0,"<65",1.0,"WHITE",1.0,"F","Y","Y","Y","Week 16",16.0,"WEEK 16",10.0,126.0,"2014-05-07","Constructional Praxis","ACITM05",5.0,2.0,3.0,-1.0,-33.33333333333333,null,"Y",null,"85-140",112.0,14.0,85.0,140.0,"DAYS",5035.0],["CDISCPILOT01","701","701","01-701-1015","2014-01-02","2014-07-02","Placebo",0.0,63.0,"<65",1.0,"WHITE",1.0,"F","Y","Y","Y","Week 24",24.0,"WEEK 24",12.0,168.0,"2014-06-18","Constructional Praxis","ACITM05",5.0,3.0,3.0,0.0,0.0,null,"Y",null,">140",168.0,0.0,141.0,null,"DAYS",5050.0],["CDISCPILOT01","701","701","01-701-1015","2014-01-02","2014-07-02","Placebo",0.0,63.0,"<65",1.0,"WHITE",1.0,"F","Y","Y","Y","Week 8",8.0,"WEEK 8",8.0,63.0,"2014-03-05","Ideational Praxis","ACITM06",6.0,0.0,0.0,0.0,null,null,"Y",null,"2-84",56.0,7.0,2.0,84.0,"DAYS",5021.0],["CDISCPILOT01","701","701","01-701-1015","2014-01-02","2014-07-02","Placebo",0.0,63.0,"<65",1.0,"WHITE",1.0,"F","Y","Y","Y","Week 16",16.0,"WEEK 16",10.0,126.0,"2014-05-07","Ideational Praxis","ACITM06",6.0,0.0,0.0,0.0,null,null,"Y",null,"85-140",112.0,14.0,85.0,140.0,"DAYS",5036.0],["CDISCPILOT01","701","701","01-701-1015","2014-01-02","2014-07-02","Placebo",0.0,63.0,"<65",1.0,"WHITE",1.0,"F","Y","Y","Y","Week 24",24.0,"WEEK 24",12.0,168.0,"2014-06-18","Ideational Praxis","ACITM06",6.0,0.0,0.0,0.0,null,null,"Y",null,">140",168.0,0.0,141.0,null,"DAYS",5051.0],["CDISCPILOT01","701","701","01-701-1015","2014-01-02","2014-07-02","Placebo",0.0,63.0,"<65",1.0,"WHITE",1.0,"F","Y","Y","Y","Week 8",8.0,"WEEK 8",8.0,63.0,"2014-03-05","Orientation","ACITM07",7.0,0.0,1.0,-1.0,-100.0,null,"Y",null,"2-84",56.0,7.0,2.0,84.0,"DAYS",5022.0],["CDISCPILOT01","701","701","01-701-1015","2014-01-02","2014-07-02","Placebo",0.0,63.0,"<65",1.0,"WHITE",1.0,"F","Y","Y","Y","Week 16",16.0,"WEEK 16",10.0,126.0,"2014-05-07","Orientation","ACITM07",7.0,0.0,1.0,-1.0,-100.0,null,"Y",null,"85-140",112.0,14.0,85.0,140.0,"DAYS",5037.0],["CDISCPILOT01","701","701","01-701-1015","2014-01-02","2014-07-02","Placebo",0.0,63.0,"<65",1.0,"WHITE",1.0,"F","Y","Y","Y","Week 24",24.0,"WEEK 24",12.0,168.0,"2014-06-18","Orientation","ACITM07",7.0,1.0,1.0,0.0,0.0,null,"Y",null,">140",168.0,0.0,141.0,null,"DAYS",5052.0],["CDISCPILOT01","701","701","01-701-1015","2014-01-02","2014-07-02","Placebo",0.0,63.0,"<65",1.0,"WHITE",1.0,"F","Y","Y","Y","Week 8",8.0,"WEEK 8",8.0,63.0,"2014-03-05","Word Recognition","ACITM08",8.0,0.0,1.0,-1.0,-100.0,null,"Y",null,"2-84",56.0,7.0,2.0,84.0,"DAYS",5023.0],["CDISCPILOT01","701","701","01-701-1015","2014-01-02","2014-07-02","Placebo",0.0,63.0,"<65",1.0,"WHITE",1.0,"F","Y","Y","Y","Week 16",16.0,"WEEK 16",10.0,126.0,"2014-05-07","Word Recognition","ACITM08",8.0,1.0,1.0,0.0,0.0,null,"Y",null,"85-140",112.0,14.0,85.0,140.0,"DAYS",5038.0],["CDISCPILOT01","701","701","01-701-1015","2014-01-02","2014-07-02","Placebo",0.0,63.0,"<65",1.0,"WHITE",1.0,"F","Y","Y","Y","Week 24",24.0,"WEEK 24",12.0,168.0,"2014-06-18","Word Recognition","ACITM08",8.0,1.0,1.0,0.0,0.0,null,"Y",null,">140",168.0,0.0,141.0,null,"DAYS",5053.0],["CDISCPILOT01","701","701","01-701-1015","2014-01-02","2014-07-02","Placebo",0.0,63.0,"<65",1.0,"WHITE",1.0,"F","Y","Y","Y","Week 8",8.0,"WEEK 8",8.0,63.0,"2014-03-05","Attention/Visual Search Task","ACITM09",9.0,27.0,23.0,4.0,17.391304347826086,null,"Y",null,"2-84",56.0,7.0,2.0,84.0,"DAYS",5024.0],["CDISCPILOT01","701","701","01-701-1015","2014-01-02","2014-07-02","Placebo",0.0,63.0,"<65",1.0,"WHITE",1.0,"F","Y","Y","Y","Week 16",16.0,"WEEK 16",10.0,126.0,"2014-05-07","Attention/Visual Search Task","ACITM09",9.0,34.0,23.0,11.0,47.82608695652174,null,"Y",null,"85-140",112.0,14.0,85.0,140.0,"DAYS",5039.0],["CDISCPILOT01","701","701","01-701-1015","2014-01-02","2014-07-02","Placebo",0.0,63.0,"<65",1.0,"WHITE",1.0,"F","Y","Y","Y","Week 24",24.0,"WEEK 24",12.0,168.0,"2014-06-18","Attention/Visual Search Task","ACITM09",9.0,39.0,23.0,16.0,69.56521739130434,null,"Y",null,">140",168.0,0.0,141.0,null,"DAYS",5054.0],["CDISCPILOT01","701","701","01-701-1015","2014-01-02","2014-07-02","Placebo",0.0,63.0,"<65",1.0,"WHITE",1.0,"F","Y","Y","Y","Week 8",8.0,"WEEK 8",8.0,63.0,"2014-03-05","Maze Solution","ACITM10",10.0,4.0,3.0,1.0,33.33333333333333,null,"Y",null,"2-84",56.0,7.0,2.0,84.0,"DAYS",5025.0],["CDISCPILOT01","701","701","01-701-1015","2014-01-02","2014-07-02","Placebo",0.0,63.0,"<65",1.0,"WHITE",1.0,"F","Y","Y","Y","Week 16",16.0,"WEEK 16",10.0,126.0,"2014-05-07","Maze Solution","ACITM10",10.0,4.0,3.0,1.0,33.33333333333333,null,"Y",null,"85-140",112.0,14.0,85.0,140.0,"DAYS",5040.0],["CDISCPILOT01","701","701","01-701-1015","2014-01-02","2014-07-02","Placebo",0.0,63.0,"<65",1.0,"WHITE",1.0,"F","Y","Y","Y","Week 24",24.0,"WEEK 24",12.0,168.0,"2014-06-18","Maze Solution","ACITM10",10.0,3.0,3.0,0.0,0.0,null,"Y",null,">140",168.0,0.0,141.0,null,"DAYS",5055.0],["CDISCPILOT01","701","701","01-701-1015","2014-01-02","2014-07-02","Placebo",0.0,63.0,"<65",1.0,"WHITE",1.0,"F","Y","Y","Y","Week 8",8.0,"WEEK 8",8.0,63.0,"2014-03-05","Spoken Language Ability","ACITM11",11.0,1.0,1.0,0.0,0.0,null,"Y",null,"2-84",56.0,7.0,2.0,84.0,"DAYS",5026.0],["CDISCPILOT01","701","701","01-701-1015","2014-01-02","2014-07-02","Placebo",0.0,63.0,"<65",1.0,"WHITE",1.0,"F","Y","Y","Y","Week 16",16.0,"WEEK 16",10.0,126.0,"2014-05-07","Spoken Language Ability","ACITM11",11.0,1.0,1.0,0.0,0.0,null,"Y",null,"85-140",112.0,14.0,85.0,140.0,"DAYS",5041.0],["CDISCPILOT01","701","701","01-701-1015","2014-01-02","2014-07-02","Placebo",0.0,63.0,"<65",1.0,"WHITE",1.0,"F","Y","Y","Y","Week 24",24.0,"WEEK 24",12.0,168.0,"2014-06-18","Spoken Language Ability","ACITM11",11.0,0.0,1.0,-1.0,-100.0,null,"Y",null,">140",168.0,0.0,141.0,null,"DAYS",5056.0],["CDISCPILOT01","701","701","01-701-1015","2014-01-02","2014-07-02","Placebo",0.0,63.0,"<65",1.0,"WHITE",1.0,"F","Y","Y","Y","Week 8",8.0,"WEEK 8",8.0,63.0,"2014-03-05","Comprehension Of Spoken Language","ACITM12",12.0,1.0,1.0,0.0,0.0,null,"Y",null,"2-84",56.0,7.0,2.0,84.0,"DAYS",5027.0],["CDISCPILOT01","701","701","01-701-1015","2014-01-02","2014-07-02","Placebo",0.0,63.0,"<65",1.0,"WHITE",1.0,"F","Y","Y","Y","Week 16",16.0,"WEEK 16",10.0,126.0,"2014-05-07","Comprehension Of Spoken Language","ACITM12",12.0,1.0,1.0,0.0,0.0,null,"Y",null,"85-140",112.0,14.0,85.0,140.0,"DAYS",5042.0],["CDISCPILOT01","701","701","01-701-1015","2014-01-02","2014-07-02","Placebo",0.0,63.0,"<65",1.0,"WHITE",1.0,"F","Y","Y","Y","Week 24",24.0,"WEEK 24",12.0,168.0,"2014-06-18","Comprehension Of Spoken Language","ACITM12",12.0,0.0,1.0,-1.0,-100.0,null,"Y",null,">140",168.0,0.0,141.0,null,"DAYS",5057.0],["CDISCPILOT01","701","701","01-701-1015","2014-01-02","2014-07-02","Placebo",0.0,63.0,"<65",1.0,"WHITE",1.0,"F","Y","Y","Y","Week 8",8.0,"WEEK 8",8.0,63.0,"2014-03-05","Word Finding Difficulty In Spontaneous S","ACITM13",13.0,1.0,1.0,0.0,0.0,null,"Y",null,"2-84",56.0,7.0,2.0,84.0,"DAYS",5028.0],["CDISCPILOT01","701","701","01-701-1015","2014-01-02","2014-07-02","Placebo",0.0,63.0,"<65",1.0,"WHITE",1.0,"F","Y","Y","Y","Week 16",16.0,"WEEK 16",10.0,126.0,"2014-05-07","Word Finding Difficulty In Spontaneous S","ACITM13",13.0,1.0,1.0,0.0,0.0,null,"Y",null,"85-140",112.0,14.0,85.0,140.0,"DAYS",5043.0],["CDISCPILOT01","701","701","01-701-1015","2014-01-02","2014-07-02","Placebo",0.0,63.0,"<65",1.0,"WHITE",1.0,"F","Y","Y","Y","Week 24",24.0,"WEEK 24",12.0,168.0,"2014-06-18","Word Finding Difficulty In Spontaneous S","ACITM13",13.0,0.0,1.0,-1.0,-100.0,null,"Y",null,">140",168.0,0.0,141.0,null,"DAYS",5058.0],["CDISCPILOT01","701","701","01-701-1015","2014-01-02","2014-07-02","Placebo",0.0,63.0,"<65",1.0,"WHITE",1.0,"F","Y","Y","Y","Week 8",8.0,"WEEK 8",8.0,63.0,"2014-03-05","Recall Of Test Instructions","ACITM14",14.0,1.0,1.0,0.0,0.0,null,"Y",null,"2-84",56.0,7.0,2.0,84.0,"DAYS",5029.0],["CDISCPILOT01","701","701","01-701-1015","2014-01-02","2014-07-02","Placebo",0.0,63.0,"<65",1.0,"WHITE",1.0,"F","Y","Y","Y","Week 16",16.0,"WEEK 16",10.0,126.0,"2014-05-07","Recall Of Test Instructions","ACITM14",14.0,1.0,1.0,0.0,0.0,null,"Y",null,"85-140",112.0,14.0,85.0,140.0,"DAYS",5044.0],["CDISCPILOT01","701","701","01-701-1015","2014-01-02","2014-07-02","Placebo",0.0,63.0,"<65",1.0,"WHITE",1.0,"F","Y","Y","Y","Week 24",24.0,"WEEK 24",12.0,168.0,"2014-06-18","Recall Of Test Instructions","ACITM14",14.0,0.0,1.0,-1.0,-100.0,null,"Y",null,">140",168.0,0.0,141.0,null,"DAYS",5059.0],["CDISCPILOT01","701","701","01-701-1015","2014-01-02","2014-07-02","Placebo",0.0,63.0,"<65",1.0,"WHITE",1.0,"F","Y","Y","Y","Week 8",8.0,"WEEK 8",8.0,63.0,"2014-03-05","Adas-Cog(11) Subscore","ACTOT",15.0,8.0,13.0,-5.0,-38.46153846153847,null,"Y",null,"2-84",56.0,7.0,2.0,84.0,"DAYS",5030.0],["CDISCPILOT01","701","701","01-701-1015","2014-01-02","2014-07-02","Placebo",0.0,63.0,"<65",1.0,"WHITE",1.0,"F","Y","Y","Y","Week 16",16.0,"WEEK 16",10.0,126.0,"2014-05-07","Adas-Cog(11) Subscore","ACTOT",15.0,11.0,13.0,-2.0,-15.384615384615385,null,"Y",null,"85-140",112.0,14.0,85.0,140.0,"DAYS",5045.0],["CDISCPILOT01","701","701","01-701-1015","2014-01-02","2014-07-02","Placebo",0.0,63.0,"<65",1.0,"WHITE",1.0,"F","Y","Y","Y","Week 24",24.0,"WEEK 24",12.0,168.0,"2014-06-18","Adas-Cog(11) Subscore","ACTOT",15.0,8.0,13.0,-5.0,-38.46153846153847,null,"Y",null,">140",168.0,0.0,141.0,null,"DAYS",5060.0],["CDISCPILOT01","701","701","01-701-1023","2012-08-05","2012-09-01","Placebo",0.0,64.0,"<65",1.0,"WHITE",1.0,"M","Y","Y","N","Week 8",8.0,"WEEK 4",5.0,29.0,"2012-09-02","Word Recall Task","ACITM01",1.0,2.0,4.0,-2.0,-50.0,null,"Y",null,"2-84",56.0,27.0,2.0,84.0,"DAYS",5016.0],["CDISCPILOT01","701","701","01-701-1023","2012-08-05","2012-09-01","Placebo",0.0,64.0,"<65",1.0,"WHITE",1.0,"M","Y","Y","N","Week 24",24.0,"RETRIEVAL",201.0,198.0,"2013-02-18","Word Recall Task","ACITM01",1.0,3.0,4.0,-1.0,-25.0,null,"Y",null,">140",168.0,30.0,141.0,null,"DAYS",5031.0],["CDISCPILOT01","701","701","01-701-1023","2012-08-05","2012-09-01","Placebo",0.0,64.0,"<65",1.0,"WHITE",1.0,"M","Y","Y","N","Week 8",8.0,"WEEK 4",5.0,29.0,"2012-09-02","Naming Objects And Fingers (Refer To 5 C","ACITM02",2.0,2.0,2.0,0.0,0.0,null,"Y",null,"2-84",56.0,27.0,2.0,84.0,"DAYS",5017.0],["CDISCPILOT01","701","701","01-701-1023","2012-08-05","2012-09-01","Placebo",0.0,64.0,"<65",1.0,"WHITE",1.0,"M","Y","Y","N","Week 24",24.0,"RETRIEVAL",201.0,198.0,"2013-02-18","Naming Objects And Fingers (Refer To 5 C","ACITM02",2.0,0.0,2.0,-2.0,-100.0,null,"Y",null,">140",168.0,30.0,141.0,null,"DAYS",5032.0],["CDISCPILOT01","701","701","01-701-1023","2012-08-05","2012-09-01","Placebo",0.0,64.0,"<65",1.0,"WHITE",1.0,"M","Y","Y","N","Week 8",8.0,"WEEK 4",5.0,29.0,"2012-09-02","Delayed Word Recall","ACITM03",3.0,2.0,2.0,0.0,0.0,null,"Y",null,"2-84",56.0,27.0,2.0,84.0,"DAYS",5018.0],["CDISCPILOT01","701","701","01-701-1023","2012-08-05","2012-09-01","Placebo",0.0,64.0,"<65",1.0,"WHITE",1.0,"M","Y","Y","N","Week 24",24.0,"RETRIEVAL",201.0,198.0,"2013-02-18","Delayed Word Recall","ACITM03",3.0,3.0,2.0,1.0,50.0,null,"Y",null,">140",168.0,30.0,141.0,null,"DAYS",5033.0],["CDISCPILOT01","701","701","01-701-1023","2012-08-05","2012-09-01","Placebo",0.0,64.0,"<65",1.0,"WHITE",1.0,"M","Y","Y","N","Week 8",8.0,"WEEK 4",5.0,29.0,"2012-09-02","Commands","ACITM04",4.0,0.0,0.0,0.0,null,null,"Y",null,"2-84",56.0,27.0,2.0,84.0,"DAYS",5019.0],["CDISCPILOT01","701","701","01-701-1023","2012-08-05","2012-09-01","Placebo",0.0,64.0,"<65",1.0,"WHITE",1.0,"M","Y","Y","N","Week 24",24.0,"RETRIEVAL",201.0,198.0,"2013-02-18","Commands","ACITM04",4.0,0.0,0.0,0.0,null,null,"Y",null,">140",168.0,30.0,141.0,null,"DAYS",5034.0],["CDISCPILOT01","701","701","01-701-1023","2012-08-05","2012-09-01","Placebo",0.0,64.0,"<65",1.0,"WHITE",1.0,"M","Y","Y","N","Week 8",8.0,"WEEK 4",5.0,29.0,"2012-09-02","Constructional Praxis","ACITM05",5.0,2.0,3.0,-1.0,-33.33333333333333,null,"Y",null,"2-84",56.0,27.0,2.0,84.0,"DAYS",5020.0],["CDISCPILOT01","701","701","01-701-1023","2012-08-05","2012-09-01","Placebo",0.0,64.0,"<65",1.0,"WHITE",1.0,"M","Y","Y","N","Week 24",24.0,"RETRIEVAL",201.0,198.0,"2013-02-18","Constructional Praxis","ACITM05",5.0,4.0,3.0,1.0,33.33333333333333,null,"Y",null,">140",168.0,30.0,141.0,null,"DAYS",5035.0],["CDISCPILOT01","701","701","01-701-1023","2012-08-05","2012-09-01","Placebo",0.0,64.0,"<65",1.0,"WHITE",1.0,"M","Y","Y","N","Week 8",8.0,"WEEK 4",5.0,29.0,"2012-09-02","Ideational Praxis","ACITM06",6.0,0.0,0.0,0.0,null,null,"Y",null,"2-84",56.0,27.0,2.0,84.0,"DAYS",5021.0],["CDISCPILOT01","701","701","01-701-1023","2012-08-05","2012-09-01","Placebo",0.0,64.0,"<65",1.0,"WHITE",1.0,"M","Y","Y","N","Week 24",24.0,"RETRIEVAL",201.0,198.0,"2013-02-18","Ideational Praxis","ACITM06",6.0,0.0,0.0,0.0,null,null,"Y",null,">140",168.0,30.0,141.0,null,"DAYS",5036.0],["CDISCPILOT01","701","701","01-701-1023","2012-08-05","2012-09-01","Placebo",0.0,64.0,"<65",1.0,"WHITE",1.0,"M","Y","Y","N","Week 8",8.0,"WEEK 4",5.0,29.0,"2012-09-02","Orientation","ACITM07",7.0,1.0,2.0,-1.0,-50.0,null,"Y",null,"2-84",56.0,27.0,2.0,84.0,"DAYS",5022.0],["CDISCPILOT01","701","701","01-701-1023","2012-08-05","2012-09-01","Placebo",0.0,64.0,"<65",1.0,"WHITE",1.0,"M","Y","Y","N","Week 24",24.0,"RETRIEVAL",201.0,198.0,"2013-02-18","Orientation","ACITM07",7.0,0.0,2.0,-2.0,-100.0,null,"Y",null,">140",168.0,30.0,141.0,null,"DAYS",5037.0],["CDISCPILOT01","701","701","01-701-1023","2012-08-05","2012-09-01","Placebo",0.0,64.0,"<65",1.0,"WHITE",1.0,"M","Y","Y","N","Week 8",8.0,"WEEK 4",5.0,29.0,"2012-09-02","Word Recognition","ACITM08",8.0,1.0,2.0,-1.0,-50.0,null,"Y",null,"2-84",56.0,27.0,2.0,84.0,"DAYS",5023.0],["CDISCPILOT01","701","701","01-701-1023","2012-08-05","2012-09-01","Placebo",0.0,64.0,"<65",1.0,"WHITE",1.0,"M","Y","Y","N","Week 24",24.0,"RETRIEVAL",201.0,198.0,"2013-02-18","Word Recognition","ACITM08",8.0,1.0,2.0,-1.0,-50.0,null,"Y",null,">140",168.0,30.0,141.0,null,"DAYS",5038.0],["CDISCPILOT01","701","701","01-701-1023","2012-08-05","2012-09-01","Placebo",0.0,64.0,"<65",1.0,"WHITE",1.0,"M","Y","Y","N","Week 8",8.0,"WEEK 4",5.0,29.0,"2012-09-02","Attention/Visual Search Task","ACITM09",9.0,40.0,39.0,1.0,2.564102564102564,null,"Y",null,"2-84",56.0,27.0,2.0,84.0,"DAYS",5024.0],["CDISCPILOT01","701","701","01-701-1023","2012-08-05","2012-09-01","Placebo",0.0,64.0,"<65",1.0,"WHITE",1.0,"M","Y","Y","N","Week 24",24.0,"RETRIEVAL",201.0,198.0,"2013-02-18","Attention/Visual Search Task","ACITM09",9.0,37.0,39.0,-2.0,-5.128205128205128,null,"Y",null,">140",168.0,30.0,141.0,null,"DAYS",5039.0],["CDISCPILOT01","701","701","01-701-1023","2012-08-05","2012-09-01","Placebo",0.0,64.0,"<65",1.0,"WHITE",1.0,"M","Y","Y","N","Week 8",8.0,"WEEK 4",5.0,29.0,"2012-09-02","Maze Solution","ACITM10",10.0,5.0,5.0,0.0,0.0,null,"Y",null,"2-84",56.0,27.0,2.0,84.0,"DAYS",5025.0],["CDISCPILOT01","701","701","01-701-1023","2012-08-05","2012-09-01","Placebo",0.0,64.0,"<65",1.0,"WHITE",1.0,"M","Y","Y","N","Week 24",24.0,"RETRIEVAL",201.0,198.0,"2013-02-18","Maze Solution","ACITM10",10.0,3.0,5.0,-2.0,-40.0,null,"Y",null,">140",168.0,30.0,141.0,null,"DAYS",5040.0],["CDISCPILOT01","701","701","01-701-1023","2012-08-05","2012-09-01","Placebo",0.0,64.0,"<65",1.0,"WHITE",1.0,"M","Y","Y","N","Week 8",8.0,"WEEK 4",5.0,29.0,"2012-09-02","Spoken Language Ability","ACITM11",11.0,0.0,0.0,0.0,null,null,"Y",null,"2-84",56.0,27.0,2.0,84.0,"DAYS",5026.0],["CDISCPILOT01","701","701","01-701-1023","2012-08-05","2012-09-01","Placebo",0.0,64.0,"<65",1.0,"WHITE",1.0,"M","Y","Y","N","Week 24",24.0,"RETRIEVAL",201.0,198.0,"2013-02-18","Spoken Language Ability","ACITM11",11.0,1.0,0.0,1.0,null,null,"Y",null,">140",168.0,30.0,141.0,null,"DAYS",5041.0],["CDISCPILOT01","701","701","01-701-1023","2012-08-05","2012-09-01","Placebo",0.0,64.0,"<65",1.0,"WHITE",1.0,"M","Y","Y","N","Week 8",8.0,"WEEK 4",5.0,29.0,"2012-09-02","Comprehension Of Spoken Language","ACITM12",12.0,0.0,0.0,0.0,null,null,"Y",null,"2-84",56.0,27.0,2.0,84.0,"DAYS",5027.0],["CDISCPILOT01","701","701","01-701-1023","2012-08-05","2012-09-01","Placebo",0.0,64.0,"<65",1.0,"WHITE",1.0,"M","Y","Y","N","Week 24",24.0,"RETRIEVAL",201.0,198.0,"2013-02-18","Comprehension Of Spoken Language","ACITM12",12.0,1.0,0.0,1.0,null,null,"Y",null,">140",168.0,30.0,141.0,null,"DAYS",5042.0],["CDISCPILOT01","701","701","01-701-1023","2012-08-05","2012-09-01","Placebo",0.0,64.0,"<65",1.0,"WHITE",1.0,"M","Y","Y","N","Week 8",8.0,"WEEK 4",5.0,29.0,"2012-09-02","Word Finding Difficulty In Spontaneous S","ACITM13",13.0,0.0,0.0,0.0,null,null,"Y",null,"2-84",56.0,27.0,2.0,84.0,"DAYS",5028.0],["CDISCPILOT01","701","701","01-701-1023","2012-08-05","2012-09-01","Placebo",0.0,64.0,"<65",1.0,"WHITE",1.0,"M","Y","Y","N","Week 24",24.0,"RETRIEVAL",201.0,198.0,"2013-02-18","Word Finding Difficulty In Spontaneous S","ACITM13",13.0,1.0,0.0,1.0,null,null,"Y",null,">140",168.0,30.0,141.0,null,"DAYS",5043.0],["CDISCPILOT01","701","701","01-701-1023","2012-08-05","2012-09-01","Placebo",0.0,64.0,"<65",1.0,"WHITE",1.0,"M","Y","Y","N","Week 8",8.0,"WEEK 4",5.0,29.0,"2012-09-02","Recall Of Test Instructions","ACITM14",14.0,0.0,0.0,0.0,null,null,"Y",null,"2-84",56.0,27.0,2.0,84.0,"DAYS",5029.0],["CDISCPILOT01","701","701","01-701-1023","2012-08-05","2012-09-01","Placebo",0.0,64.0,"<65",1.0,"WHITE",1.0,"M","Y","Y","N","Week 24",24.0,"RETRIEVAL",201.0,198.0,"2013-02-18","Recall Of Test Instructions","ACITM14",14.0,1.0,0.0,1.0,null,null,"Y",null,">140",168.0,30.0,141.0,null,"DAYS",5044.0],["CDISCPILOT01","701","701","01-701-1023","2012-08-05","2012-09-01","Placebo",0.0,64.0,"<65",1.0,"WHITE",1.0,"M","Y","Y","N","Week 8",8.0,"WEEK 4",5.0,29.0,"2012-09-02","Adas-Cog(11) Subscore","ACTOT",15.0,8.0,13.0,-5.0,-38.46153846153847,null,"Y",null,"2-84",56.0,27.0,2.0,84.0,"DAYS",5030.0],["CDISCPILOT01","701","701","01-701-1023","2012-08-05","2012-09-01","Placebo",0.0,64.0,"<65",1.0,"WHITE",1.0,"M","Y","Y","N","Week 16",16.0,"WEEK 4",5.0,29.0,"2012-09-02","Adas-Cog(11) Subscore","ACTOT",15.0,8.0,13.0,-5.0,-38.46153846153847,null,"Y","LOCF","85-140",112.0,83.0,85.0,140.0,"DAYS",5030.0],["CDISCPILOT01","701","701","01-701-1023","2012-08-05","2012-09-01","Placebo",0.0,64.0,"<65",1.0,"WHITE",1.0,"M","Y","Y","N","Week 24",24.0,"RETRIEVAL",201.0,198.0,"2013-02-18","Adas-Cog(11) Subscore","ACTOT",15.0,12.0,13.0,-1.0,-7.6923076923076925,null,"Y",null,">140",168.0,30.0,141.0,null,"DAYS",5045.0],["CDISCPILOT01","701","701","01-701-1028","2013-07-19","2014-01-14","Xanomeline High Dose",81.0,71.0,"65-80",2.0,"WHITE",1.0,"M","Y","Y","Y","Week 8",8.0,"WEEK 8",8.0,54.0,"2013-09-10","Word Recall Task","ACITM01",1.0,1.0,1.0,0.0,0.0,null,"Y",null,"2-84",56.0,2.0,2.0,84.0,"DAYS",5016.0],["CDISCPILOT01","701","701","01-701-1028","2013-07-19","2014-01-14","Xanomeline High Dose",81.0,71.0,"65-80",2.0,"WHITE",1.0,"M","Y","Y","Y","Week 16",16.0,"WEEK 16",10.0,111.0,"2013-11-06","Word Recall Task","ACITM01",1.0,3.0,1.0,2.0,200.0,null,"Y",null,"85-140",112.0,1.0,85.0,140.0,"DAYS",5031.0],["CDISCPILOT01","701","701","01-701-1028","2013-07-19","2014-01-14","Xanomeline High Dose",81.0,71.0,"65-80",2.0,"WHITE",1.0,"M","Y","Y","Y","Week 24",24.0,"WEEK 24",12.0,172.0,"2014-01-06","Word Recall Task","ACITM01",1.0,2.0,1.0,1.0,100.0,null,"Y",null,">140",168.0,4.0,141.0,null,"DAYS",5046.0],["CDISCPILOT01","701","701","01-701-1028","2013-07-19","2014-01-14","Xanomeline High Dose",81.0,71.0,"65-80",2.0,"WHITE",1.0,"M","Y","Y","Y","Week 8",8.0,"WEEK 8",8.0,54.0,"2013-09-10","Naming Objects And Fingers (Refer To 5 C","ACITM02",2.0,0.0,0.0,0.0,null,null,"Y",null,"2-84",56.0,2.0,2.0,84.0,"DAYS",5017.0],["CDISCPILOT01","701","701","01-701-1028","2013-07-19","2014-01-14","Xanomeline High Dose",81.0,71.0,"65-80",2.0,"WHITE",1.0,"M","Y","Y","Y","Week 16",16.0,"WEEK 16",10.0,111.0,"2013-11-06","Naming Objects And Fingers (Refer To 5 C","ACITM02",2.0,0.0,0.0,0.0,null,null,"Y",null,"85-140",112.0,1.0,85.0,140.0,"DAYS",5032.0],["CDISCPILOT01","701","701","01-701-1028","2013-07-19","2014-01-14","Xanomeline High Dose",81.0,71.0,"65-80",2.0,"WHITE",1.0,"M","Y","Y","Y","Week 24",24.0,"WEEK 24",12.0,172.0,"2014-01-06","Naming Objects And Fingers (Refer To 5 C","ACITM02",2.0,0.0,0.0,0.0,null,null,"Y",null,">140",168.0,4.0,141.0,null,"DAYS",5047.0],["CDISCPILOT01","701","701","01-701-1028","2013-07-19","2014-01-14","Xanomeline High Dose",81.0,71.0,"65-80",2.0,"WHITE",1.0,"M","Y","Y","Y","Week 8",8.0,"WEEK 8",8.0,54.0,"2013-09-10","Delayed Word Recall","ACITM03",3.0,0.0,1.0,-1.0,-100.0,null,"Y",null,"2-84",56.0,2.0,2.0,84.0,"DAYS",5018.0],["CDISCPILOT01","701","701","01-701-1028","2013-07-19","2014-01-14","Xanomeline High Dose",81.0,71.0,"65-80",2.0,"WHITE",1.0,"M","Y","Y","Y","Week 16",16.0,"WEEK 16",10.0,111.0,"2013-11-06","Delayed Word Recall","ACITM03",3.0,4.0,1.0,3.0,300.0,null,"Y",null,"85-140",112.0,1.0,85.0,140.0,"DAYS",5033.0],["CDISCPILOT01","701","701","01-701-1028","2013-07-19","2014-01-14","Xanomeline High Dose",81.0,71.0,"65-80",2.0,"WHITE",1.0,"M","Y","Y","Y","Week 24",24.0,"WEEK 24",12.0,172.0,"2014-01-06","Delayed Word Recall","ACITM03",3.0,1.0,1.0,0.0,0.0,null,"Y",null,">140",168.0,4.0,141.0,null,"DAYS",5048.0],["CDISCPILOT01","701","701","01-701-1028","2013-07-19","2014-01-14","Xanomeline High Dose",81.0,71.0,"65-80",2.0,"WHITE",1.0,"M","Y","Y","Y","Week 8",8.0,"WEEK 8",8.0,54.0,"2013-09-10","Commands","ACITM04",4.0,0.0,0.0,0.0,null,null,"Y",null,"2-84",56.0,2.0,2.0,84.0,"DAYS",5019.0],["CDISCPILOT01","701","701","01-701-1028","2013-07-19","2014-01-14","Xanomeline High Dose",81.0,71.0,"65-80",2.0,"WHITE",1.0,"M","Y","Y","Y","Week 16",16.0,"WEEK 16",10.0,111.0,"2013-11-06","Commands","ACITM04",4.0,0.0,0.0,0.0,null,null,"Y",null,"85-140",112.0,1.0,85.0,140.0,"DAYS",5034.0],["CDISCPILOT01","701","701","01-701-1028","2013-07-19","2014-01-14","Xanomeline High Dose",81.0,71.0,"65-80",2.0,"WHITE",1.0,"M","Y","Y","Y","Week 24",24.0,"WEEK 24",12.0,172.0,"2014-01-06","Commands","ACITM04",4.0,0.0,0.0,0.0,null,null,"Y",null,">140",168.0,4.0,141.0,null,"DAYS",5049.0],["CDISCPILOT01","701","701","01-701-1028","2013-07-19","2014-01-14","Xanomeline High Dose",81.0,71.0,"65-80",2.0,"WHITE",1.0,"M","Y","Y","Y","Week 8",8.0,"WEEK 8",8.0,54.0,"2013-09-10","Constructional Praxis","ACITM05",5.0,0.0,0.0,0.0,null,null,"Y",null,"2-84",56.0,2.0,2.0,84.0,"DAYS",5020.0],["CDISCPILOT01","701","701","01-701-1028","2013-07-19","2014-01-14","Xanomeline High Dose",81.0,71.0,"65-80",2.0,"WHITE",1.0,"M","Y","Y","Y","Week 16",16.0,"WEEK 16",10.0,111.0,"2013-11-06","Constructional Praxis","ACITM05",5.0,0.0,0.0,0.0,null,null,"Y",null,"85-140",112.0,1.0,85.0,140.0,"DAYS",5035.0],["CDISCPILOT01","701","701","01-701-1028","2013-07-19","2014-01-14","Xanomeline High Dose",81.0,71.0,"65-80",2.0,"WHITE",1.0,"M","Y","Y","Y","Week 24",24.0,"WEEK 24",12.0,172.0,"2014-01-06","Constructional Praxis","ACITM05",5.0,0.0,0.0,0.0,null,null,"Y",null,">140",168.0,4.0,141.0,null,"DAYS",5050.0],["CDISCPILOT01","701","701","01-701-1028","2013-07-19","2014-01-14","Xanomeline High Dose",81.0,71.0,"65-80",2.0,"WHITE",1.0,"M","Y","Y","Y","Week 8",8.0,"WEEK 8",8.0,54.0,"2013-09-10","Ideational Praxis","ACITM06",6.0,0.0,0.0,0.0,null,null,"Y",null,"2-84",56.0,2.0,2.0,84.0,"DAYS",5021.0],["CDISCPILOT01","701","701","01-701-1028","2013-07-19","2014-01-14","Xanomeline High Dose",81.0,71.0,"65-80",2.0,"WHITE",1.0,"M","Y","Y","Y","Week 16",16.0,"WEEK 16",10.0,111.0,"2013-11-06","Ideational Praxis","ACITM06",6.0,0.0,0.0,0.0,null,null,"Y",null,"85-140",112.0,1.0,85.0,140.0,"DAYS",5036.0],["CDISCPILOT01","701","701","01-701-1028","2013-07-19","2014-01-14","Xanomeline High Dose",81.0,71.0,"65-80",2.0,"WHITE",1.0,"M","Y","Y","Y","Week 24",24.0,"WEEK 24",12.0,172.0,"2014-01-06","Ideational Praxis","ACITM06",6.0,0.0,0.0,0.0,null,null,"Y",null,">140",168.0,4.0,141.0,null,"DAYS",5051.0],["CDISCPILOT01","701","701","01-701-1028","2013-07-19","2014-01-14","Xanomeline High Dose",81.0,71.0,"65-80",2.0,"WHITE",1.0,"M","Y","Y","Y","Week 8",8.0,"WEEK 8",8.0,54.0,"2013-09-10","Orientation","ACITM07",7.0,0.0,0.0,0.0,null,null,"Y",null,"2-84",56.0,2.0,2.0,84.0,"DAYS",5022.0],["CDISCPILOT01","701","701","01-701-1028","2013-07-19","2014-01-14","Xanomeline High Dose",81.0,71.0,"65-80",2.0,"WHITE",1.0,"M","Y","Y","Y","Week 16",16.0,"WEEK 16",10.0,111.0,"2013-11-06","Orientation","ACITM07",7.0,0.0,0.0,0.0,null,null,"Y",null,"85-140",112.0,1.0,85.0,140.0,"DAYS",5037.0],["CDISCPILOT01","701","701","01-701-1028","2013-07-19","2014-01-14","Xanomeline High Dose",81.0,71.0,"65-80",2.0,"WHITE",1.0,"M","Y","Y","Y","Week 24",24.0,"WEEK 24",12.0,172.0,"2014-01-06","Orientation","ACITM07",7.0,0.0,0.0,0.0,null,null,"Y",null,">140",168.0,4.0,141.0,null,"DAYS",5052.0],["CDISCPILOT01","701","701","01-701-1028","2013-07-19","2014-01-14","Xanomeline High Dose",81.0,71.0,"65-80",2.0,"WHITE",1.0,"M","Y","Y","Y","Week 8",8.0,"WEEK 8",8.0,54.0,"2013-09-10","Word Recognition","ACITM08",8.0,1.0,2.0,-1.0,-50.0,null,"Y",null,"2-84",56.0,2.0,2.0,84.0,"DAYS",5023.0],["CDISCPILOT01","701","701","01-701-1028","2013-07-19","2014-01-14","Xanomeline High Dose",81.0,71.0,"65-80",2.0,"WHITE",1.0,"M","Y","Y","Y","Week 16",16.0,"WEEK 16",10.0,111.0,"2013-11-06","Word Recognition","ACITM08",8.0,1.0,2.0,-1.0,-50.0,null,"Y",null,"85-140",112.0,1.0,85.0,140.0,"DAYS",5038.0],["CDISCPILOT01","701","701","01-701-1028","2013-07-19","2014-01-14","Xanomeline High Dose",81.0,71.0,"65-80",2.0,"WHITE",1.0,"M","Y","Y","Y","Week 24",24.0,"WEEK 24",12.0,172.0,"2014-01-06","Word Recognition","ACITM08",8.0,1.0,2.0,-1.0,-50.0,null,"Y",null,">140",168.0,4.0,141.0,null,"DAYS",5053.0],["CDISCPILOT01","701","701","01-701-1028","2013-07-19","2014-01-14","Xanomeline High Dose",81.0,71.0,"65-80",2.0,"WHITE",1.0,"M","Y","Y","Y","Week 8",8.0,"WEEK 8",8.0,54.0,"2013-09-10","Attention/Visual Search Task","ACITM09",9.0,25.0,24.0,1.0,4.166666666666666,null,"Y",null,"2-84",56.0,2.0,2.0,84.0,"DAYS",5024.0],["CDISCPILOT01","701","701","01-701-1028","2013-07-19","2014-01-14","Xanomeline High Dose",81.0,71.0,"65-80",2.0,"WHITE",1.0,"M","Y","Y","Y","Week 16",16.0,"WEEK 16",10.0,111.0,"2013-11-06","Attention/Visual Search Task","ACITM09",9.0,34.0,24.0,10.0,41.66666666666667,null,"Y",null,"85-140",112.0,1.0,85.0,140.0,"DAYS",5039.0],["CDISCPILOT01","701","701","01-701-1028","2013-07-19","2014-01-14","Xanomeline High Dose",81.0,71.0,"65-80",2.0,"WHITE",1.0,"M","Y","Y","Y","Week 24",24.0,"WEEK 24",12.0,172.0,"2014-01-06","Attention/Visual Search Task","ACITM09",9.0,26.0,24.0,2.0,8.333333333333332,null,"Y",null,">140",168.0,4.0,141.0,null,"DAYS",5054.0],["CDISCPILOT01","701","701","01-701-1028","2013-07-19","2014-01-14","Xanomeline High Dose",81.0,71.0,"65-80",2.0,"WHITE",1.0,"M","Y","Y","Y","Week 8",8.0,"WEEK 8",8.0,54.0,"2013-09-10","Maze Solution","ACITM10",10.0,5.0,4.0,1.0,25.0,null,"Y",null,"2-84",56.0,2.0,2.0,84.0,"DAYS",5025.0],["CDISCPILOT01","701","701","01-701-1028","2013-07-19","2014-01-14","Xanomeline High Dose",81.0,71.0,"65-80",2.0,"WHITE",1.0,"M","Y","Y","Y","Week 16",16.0,"WEEK 16",10.0,111.0,"2013-11-06","Maze Solution","ACITM10",10.0,5.0,4.0,1.0,25.0,null,"Y",null,"85-140",112.0,1.0,85.0,140.0,"DAYS",5040.0],["CDISCPILOT01","701","701","01-701-1028","2013-07-19","2014-01-14","Xanomeline High Dose",81.0,71.0,"65-80",2.0,"WHITE",1.0,"M","Y","Y","Y","Week 24",24.0,"WEEK 24",12.0,172.0,"2014-01-06","Maze Solution","ACITM10",10.0,5.0,4.0,1.0,25.0,null,"Y",null,">140",168.0,4.0,141.0,null,"DAYS",5055.0],["CDISCPILOT01","701","701","01-701-1028","2013-07-19","2014-01-14","Xanomeline High Dose",81.0,71.0,"65-80",2.0,"WHITE",1.0,"M","Y","Y","Y","Week 8",8.0,"WEEK 8",8.0,54.0,"2013-09-10","Spoken Language Ability","ACITM11",11.0,0.0,0.0,0.0,null,null,"Y",null,"2-84",56.0,2.0,2.0,84.0,"DAYS",5026.0],["CDISCPILOT01","701","701","01-701-1028","2013-07-19","2014-01-14","Xanomeline High Dose",81.0,71.0,"65-80",2.0,"WHITE",1.0,"M","Y","Y","Y","Week 16",16.0,"WEEK 16",10.0,111.0,"2013-11-06","Spoken Language Ability","ACITM11",11.0,0.0,0.0,0.0,null,null,"Y",null,"85-140",112.0,1.0,85.0,140.0,"DAYS",5041.0],["CDISCPILOT01","701","701","01-701-1028","2013-07-19","2014-01-14","Xanomeline High Dose",81.0,71.0,"65-80",2.0,"WHITE",1.0,"M","Y","Y","Y","Week 24",24.0,"WEEK 24",12.0,172.0,"2014-01-06","Spoken Language Ability","ACITM11",11.0,0.0,0.0,0.0,null,null,"Y",null,">140",168.0,4.0,141.0,null,"DAYS",5056.0],["CDISCPILOT01","701","701","01-701-1028","2013-07-19","2014-01-14","Xanomeline High Dose",81.0,71.0,"65-80",2.0,"WHITE",1.0,"M","Y","Y","Y","Week 8",8.0,"WEEK 8",8.0,54.0,"2013-09-10","Comprehension Of Spoken Language","ACITM12",12.0,0.0,0.0,0.0,null,null,"Y",null,"2-84",56.0,2.0,2.0,84.0,"DAYS",5027.0],["CDISCPILOT01","701","701","01-701-1028","2013-07-19","2014-01-14","Xanomeline High Dose",81.0,71.0,"65-80",2.0,"WHITE",1.0,"M","Y","Y","Y","Week 16",16.0,"WEEK 16",10.0,111.0,"2013-11-06","Comprehension Of Spoken Language","ACITM12",12.0,0.0,0.0,0.0,null,null,"Y",null,"85-140",112.0,1.0,85.0,140.0,"DAYS",5042.0],["CDISCPILOT01","701","701","01-701-1028","2013-07-19","2014-01-14","Xanomeline High Dose",81.0,71.0,"65-80",2.0,"WHITE",1.0,"M","Y","Y","Y","Week 24",24.0,"WEEK 24",12.0,172.0,"2014-01-06","Comprehension Of Spoken Language","ACITM12",12.0,0.0,0.0,0.0,null,null,"Y",null,">140",168.0,4.0,141.0,null,"DAYS",5057.0],["CDISCPILOT01","701","701","01-701-1028","2013-07-19","2014-01-14","Xanomeline High Dose",81.0,71.0,"65-80",2.0,"WHITE",1.0,"M","Y","Y","Y","Week 8",8.0,"WEEK 8",8.0,54.0,"2013-09-10","Word Finding Difficulty In Spontaneous S","ACITM13",13.0,0.0,0.0,0.0,null,null,"Y",null,"2-84",56.0,2.0,2.0,84.0,"DAYS",5028.0],["CDISCPILOT01","701","701","01-701-1028","2013-07-19","2014-01-14","Xanomeline High Dose",81.0,71.0,"65-80",2.0,"WHITE",1.0,"M","Y","Y","Y","Week 16",16.0,"WEEK 16",10.0,111.0,"2013-11-06","Word Finding Difficulty In Spontaneous S","ACITM13",13.0,0.0,0.0,0.0,null,null,"Y",null,"85-140",112.0,1.0,85.0,140.0,"DAYS",5043.0],["CDISCPILOT01","701","701","01-701-1028","2013-07-19","2014-01-14","Xanomeline High Dose",81.0,71.0,"65-80",2.0,"WHITE",1.0,"M","Y","Y","Y","Week 24",24.0,"WEEK 24",12.0,172.0,"2014-01-06","Word Finding Difficulty In Spontaneous S","ACITM13",13.0,0.0,0.0,0.0,null,null,"Y",null,">140",168.0,4.0,141.0,null,"DAYS",5058.0],["CDISCPILOT01","701","701","01-701-1028","2013-07-19","2014-01-14","Xanomeline High Dose",81.0,71.0,"65-80",2.0,"WHITE",1.0,"M","Y","Y","Y","Week 8",8.0,"WEEK 8",8.0,54.0,"2013-09-10","Recall Of Test Instructions","ACITM14",14.0,0.0,0.0,0.0,null,null,"Y",null,"2-84",56.0,2.0,2.0,84.0,"DAYS",5029.0],["CDISCPILOT01","701","701","01-701-1028","2013-07-19","2014-01-14","Xanomeline High Dose",81.0,71.0,"65-80",2.0,"WHITE",1.0,"M","Y","Y","Y","Week 16",16.0,"WEEK 16",10.0,111.0,"2013-11-06","Recall Of Test Instructions","ACITM14",14.0,0.0,0.0,0.0,null,null,"Y",null,"85-140",112.0,1.0,85.0,140.0,"DAYS",5044.0],["CDISCPILOT01","701","701","01-701-1028","2013-07-19","2014-01-14","Xanomeline High Dose",81.0,71.0,"65-80",2.0,"WHITE",1.0,"M","Y","Y","Y","Week 24",24.0,"WEEK 24",12.0,172.0,"2014-01-06","Recall Of Test Instructions","ACITM14",14.0,0.0,0.0,0.0,null,null,"Y",null,">140",168.0,4.0,141.0,null,"DAYS",5059.0],["CDISCPILOT01","701","701","01-701-1028","2013-07-19","2014-01-14","Xanomeline High Dose",81.0,71.0,"65-80",2.0,"WHITE",1.0,"M","Y","Y","Y","Week 8",8.0,"WEEK 8",8.0,54.0,"2013-09-10","Adas-Cog(11) Subscore","ACTOT",15.0,2.0,3.0,-1.0,-33.33333333333333,null,"Y",null,"2-84",56.0,2.0,2.0,84.0,"DAYS",5030.0],["CDISCPILOT01","701","701","01-701-1028","2013-07-19","2014-01-14","Xanomeline High Dose",81.0,71.0,"65-80",2.0,"WHITE",1.0,"M","Y","Y","Y","Week 16",16.0,"WEEK 16",10.0,111.0,"2013-11-06","Adas-Cog(11) Subscore","ACTOT",15.0,4.0,3.0,1.0,33.33333333333333,null,"Y",null,"85-140",112.0,1.0,85.0,140.0,"DAYS",5045.0],["CDISCPILOT01","701","701","01-701-1028","2013-07-19","2014-01-14","Xanomeline High Dose",81.0,71.0,"65-80",2.0,"WHITE",1.0,"M","Y","Y","Y","Week 24",24.0,"WEEK 24",12.0,172.0,"2014-01-06","Adas-Cog(11) Subscore","ACTOT",15.0,3.0,3.0,0.0,0.0,null,"Y",null,">140",168.0,4.0,141.0,null,"DAYS",5060.0],["CDISCPILOT01","701","701","01-701-1033","2014-03-18","2014-03-31","Xanomeline Low Dose",54.0,74.0,"65-80",2.0,"WHITE",1.0,"M","Y","Y","N","Week 8",8.0,"WEEK 4",5.0,28.0,"2014-04-14","Word Recall Task","ACITM01",1.0,5.0,5.0,0.0,0.0,null,"Y",null,"2-84",56.0,28.0,2.0,84.0,"DAYS",5016.0],["CDISCPILOT01","701","701","01-701-1033","2014-03-18","2014-03-31","Xanomeline Low Dose",54.0,74.0,"65-80",2.0,"WHITE",1.0,"M","Y","Y","N","Week 24",24.0,"RETRIEVAL",201.0,182.0,"2014-09-15","Word Recall Task","ACITM01",1.0,6.0,5.0,1.0,20.0,null,"Y",null,">140",168.0,14.0,141.0,null,"DAYS",5031.0],["CDISCPILOT01","701","701","01-701-1033","2014-03-18","2014-03-31","Xanomeline Low Dose",54.0,74.0,"65-80",2.0,"WHITE",1.0,"M","Y","Y","N","Week 8",8.0,"WEEK 4",5.0,28.0,"2014-04-14","Naming Objects And Fingers (Refer To 5 C","ACITM02",2.0,0.0,0.0,0.0,null,null,"Y",null,"2-84",56.0,28.0,2.0,84.0,"DAYS",5017.0],["CDISCPILOT01","701","701","01-701-1033","2014-03-18","2014-03-31","Xanomeline Low Dose",54.0,74.0,"65-80",2.0,"WHITE",1.0,"M","Y","Y","N","Week 24",24.0,"RETRIEVAL",201.0,182.0,"2014-09-15","Naming Objects And Fingers (Refer To 5 C","ACITM02",2.0,0.0,0.0,0.0,null,null,"Y",null,">140",168.0,14.0,141.0,null,"DAYS",5032.0],["CDISCPILOT01","701","701","01-701-1033","2014-03-18","2014-03-31","Xanomeline Low Dose",54.0,74.0,"65-80",2.0,"WHITE",1.0,"M","Y","Y","N","Week 8",8.0,"WEEK 4",5.0,28.0,"2014-04-14","Delayed Word Recall","ACITM03",3.0,3.0,6.0,-3.0,-50.0,null,"Y",null,"2-84",56.0,28.0,2.0,84.0,"DAYS",5018.0],["CDISCPILOT01","701","701","01-701-1033","2014-03-18","2014-03-31","Xanomeline Low Dose",54.0,74.0,"65-80",2.0,"WHITE",1.0,"M","Y","Y","N","Week 24",24.0,"RETRIEVAL",201.0,182.0,"2014-09-15","Delayed Word Recall","ACITM03",3.0,6.0,6.0,0.0,0.0,null,"Y",null,">140",168.0,14.0,141.0,null,"DAYS",5033.0],["CDISCPILOT01","701","701","01-701-1033","2014-03-18","2014-03-31","Xanomeline Low Dose",54.0,74.0,"65-80",2.0,"WHITE",1.0,"M","Y","Y","N","Week 8",8.0,"WEEK 4",5.0,28.0,"2014-04-14","Commands","ACITM04",4.0,0.0,0.0,0.0,null,null,"Y",null,"2-84",56.0,28.0,2.0,84.0,"DAYS",5019.0],["CDISCPILOT01","701","701","01-701-1033","2014-03-18","2014-03-31","Xanomeline Low Dose",54.0,74.0,"65-80",2.0,"WHITE",1.0,"M","Y","Y","N","Week 24",24.0,"RETRIEVAL",201.0,182.0,"2014-09-15","Commands","ACITM04",4.0,0.0,0.0,0.0,null,null,"Y",null,">140",168.0,14.0,141.0,null,"DAYS",5034.0],["CDISCPILOT01","701","701","01-701-1033","2014-03-18","2014-03-31","Xanomeline Low Dose",54.0,74.0,"65-80",2.0,"WHITE",1.0,"M","Y","Y","N","Week 8",8.0,"WEEK 4",5.0,28.0,"2014-04-14","Constructional Praxis","ACITM05",5.0,1.0,1.0,0.0,0.0,null,"Y",null,"2-84",56.0,28.0,2.0,84.0,"DAYS",5020.0],["CDISCPILOT01","701","701","01-701-1033","2014-03-18","2014-03-31","Xanomeline Low Dose",54.0,74.0,"65-80",2.0,"WHITE",1.0,"M","Y","Y","N","Week 24",24.0,"RETRIEVAL",201.0,182.0,"2014-09-15","Constructional Praxis","ACITM05",5.0,0.0,1.0,-1.0,-100.0,null,"Y",null,">140",168.0,14.0,141.0,null,"DAYS",5035.0],["CDISCPILOT01","701","701","01-701-1033","2014-03-18","2014-03-31","Xanomeline Low Dose",54.0,74.0,"65-80",2.0,"WHITE",1.0,"M","Y","Y","N","Week 8",8.0,"WEEK 4",5.0,28.0,"2014-04-14","Ideational Praxis","ACITM06",6.0,0.0,0.0,0.0,null,null,"Y",null,"2-84",56.0,28.0,2.0,84.0,"DAYS",5021.0],["CDISCPILOT01","701","701","01-701-1033","2014-03-18","2014-03-31","Xanomeline Low Dose",54.0,74.0,"65-80",2.0,"WHITE",1.0,"M","Y","Y","N","Week 24",24.0,"RETRIEVAL",201.0,182.0,"2014-09-15","Ideational Praxis","ACITM06",6.0,0.0,0.0,0.0,null,null,"Y",null,">140",168.0,14.0,141.0,null,"DAYS",5036.0],["CDISCPILOT01","701","701","01-701-1033","2014-03-18","2014-03-31","Xanomeline Low Dose",54.0,74.0,"65-80",2.0,"WHITE",1.0,"M","Y","Y","N","Week 8",8.0,"WEEK 4",5.0,28.0,"2014-04-14","Orientation","ACITM07",7.0,0.0,0.0,0.0,null,null,"Y",null,"2-84",56.0,28.0,2.0,84.0,"DAYS",5022.0],["CDISCPILOT01","701","701","01-701-1033","2014-03-18","2014-03-31","Xanomeline Low Dose",54.0,74.0,"65-80",2.0,"WHITE",1.0,"M","Y","Y","N","Week 24",24.0,"RETRIEVAL",201.0,182.0,"2014-09-15","Orientation","ACITM07",7.0,0.0,0.0,0.0,null,null,"Y",null,">140",168.0,14.0,141.0,null,"DAYS",5037.0],["CDISCPILOT01","701","701","01-701-1033","2014-03-18","2014-03-31","Xanomeline Low Dose",54.0,74.0,"65-80",2.0,"WHITE",1.0,"M","Y","Y","N","Week 8",8.0,"WEEK 4",5.0,28.0,"2014-04-14","Word Recognition","ACITM08",8.0,2.0,1.0,1.0,100.0,null,"Y",null,"2-84",56.0,28.0,2.0,84.0,"DAYS",5023.0],["CDISCPILOT01","701","701","01-701-1033","2014-03-18","2014-03-31","Xanomeline Low Dose",54.0,74.0,"65-80",2.0,"WHITE",1.0,"M","Y","Y","N","Week 24",24.0,"RETRIEVAL",201.0,182.0,"2014-09-15","Word Recognition","ACITM08",8.0,1.0,1.0,0.0,0.0,null,"Y",null,">140",168.0,14.0,141.0,null,"DAYS",5038.0],["CDISCPILOT01","701","701","01-701-1033","2014-03-18","2014-03-31","Xanomeline Low Dose",54.0,74.0,"65-80",2.0,"WHITE",1.0,"M","Y","Y","N","Week 8",8.0,"WEEK 4",5.0,28.0,"2014-04-14","Attention/Visual Search Task","ACITM09",9.0,24.0,30.0,-6.0,-20.0,null,"Y",null,"2-84",56.0,28.0,2.0,84.0,"DAYS",5024.0],["CDISCPILOT01","701","701","01-701-1033","2014-03-18","2014-03-31","Xanomeline Low Dose",54.0,74.0,"65-80",2.0,"WHITE",1.0,"M","Y","Y","N","Week 24",24.0,"RETRIEVAL",201.0,182.0,"2014-09-15","Attention/Visual Search Task","ACITM09",9.0,27.0,30.0,-3.0,-10.0,null,"Y",null,">140",168.0,14.0,141.0,null,"DAYS",5039.0],["CDISCPILOT01","701","701","01-701-1033","2014-03-18","2014-03-31","Xanomeline Low Dose",54.0,74.0,"65-80",2.0,"WHITE",1.0,"M","Y","Y","N","Week 8",8.0,"WEEK 4",5.0,28.0,"2014-04-14","Maze Solution","ACITM10",10.0,6.0,7.0,-1.0,-14.285714285714285,null,"Y",null,"2-84",56.0,28.0,2.0,84.0,"DAYS",5025.0],["CDISCPILOT01","701","701","01-701-1033","2014-03-18","2014-03-31","Xanomeline Low Dose",54.0,74.0,"65-80",2.0,"WHITE",1.0,"M","Y","Y","N","Week 24",24.0,"RETRIEVAL",201.0,182.0,"2014-09-15","Maze Solution","ACITM10",10.0,4.0,7.0,-3.0,-42.857142857142854,null,"Y",null,">140",168.0,14.0,141.0,null,"DAYS",5040.0],["CDISCPILOT01","701","701","01-701-1033","2014-03-18","2014-03-31","Xanomeline Low Dose",54.0,74.0,"65-80",2.0,"WHITE",1.0,"M","Y","Y","N","Week 8",8.0,"WEEK 4",5.0,28.0,"2014-04-14","Spoken Language Ability","ACITM11",11.0,0.0,0.0,0.0,null,null,"Y",null,"2-84",56.0,28.0,2.0,84.0,"DAYS",5026.0],["CDISCPILOT01","701","701","01-701-1033","2014-03-18","2014-03-31","Xanomeline Low Dose",54.0,74.0,"65-80",2.0,"WHITE",1.0,"M","Y","Y","N","Week 24",24.0,"RETRIEVAL",201.0,182.0,"2014-09-15","Spoken Language Ability","ACITM11",11.0,0.0,0.0,0.0,null,null,"Y",null,">140",168.0,14.0,141.0,null,"DAYS",5041.0],["CDISCPILOT01","701","701","01-701-1033","2014-03-18","2014-03-31","Xanomeline Low Dose",54.0,74.0,"65-80",2.0,"WHITE",1.0,"M","Y","Y","N","Week 8",8.0,"WEEK 4",5.0,28.0,"2014-04-14","Comprehension Of Spoken Language","ACITM12",12.0,0.0,0.0,0.0,null,null,"Y",null,"2-84",56.0,28.0,2.0,84.0,"DAYS",5027.0],["CDISCPILOT01","701","701","01-701-1033","2014-03-18","2014-03-31","Xanomeline Low Dose",54.0,74.0,"65-80",2.0,"WHITE",1.0,"M","Y","Y","N","Week 24",24.0,"RETRIEVAL",201.0,182.0,"2014-09-15","Comprehension Of Spoken Language","ACITM12",12.0,0.0,0.0,0.0,null,null,"Y",null,">140",168.0,14.0,141.0,null,"DAYS",5042.0],["CDISCPILOT01","701","701","01-701-1033","2014-03-18","2014-03-31","Xanomeline Low Dose",54.0,74.0,"65-80",2.0,"WHITE",1.0,"M","Y","Y","N","Week 8",8.0,"WEEK 4",5.0,28.0,"2014-04-14","Word Finding Difficulty In Spontaneous S","ACITM13",13.0,0.0,0.0,0.0,null,null,"Y",null,"2-84",56.0,28.0,2.0,84.0,"DAYS",5028.0],["CDISCPILOT01","701","701","01-701-1033","2014-03-18","2014-03-31","Xanomeline Low Dose",54.0,74.0,"65-80",2.0,"WHITE",1.0,"M","Y","Y","N","Week 24",24.0,"RETRIEVAL",201.0,182.0,"2014-09-15","Word Finding Difficulty In Spontaneous S","ACITM13",13.0,0.0,0.0,0.0,null,null,"Y",null,">140",168.0,14.0,141.0,null,"DAYS",5043.0],["CDISCPILOT01","701","701","01-701-1033","2014-03-18","2014-03-31","Xanomeline Low Dose",54.0,74.0,"65-80",2.0,"WHITE",1.0,"M","Y","Y","N","Week 8",8.0,"WEEK 4",5.0,28.0,"2014-04-14","Recall Of Test Instructions","ACITM14",14.0,0.0,0.0,0.0,null,null,"Y",null,"2-84",56.0,28.0,2.0,84.0,"DAYS",5029.0],["CDISCPILOT01","701","701","01-701-1033","2014-03-18","2014-03-31","Xanomeline Low Dose",54.0,74.0,"65-80",2.0,"WHITE",1.0,"M","Y","Y","N","Week 24",24.0,"RETRIEVAL",201.0,182.0,"2014-09-15","Recall Of Test Instructions","ACITM14",14.0,0.0,0.0,0.0,null,null,"Y",null,">140",168.0,14.0,141.0,null,"DAYS",5044.0],["CDISCPILOT01","701","701","01-701-1033","2014-03-18","2014-03-31","Xanomeline Low Dose",54.0,74.0,"65-80",2.0,"WHITE",1.0,"M","Y","Y","N","Week 8",8.0,"WEEK 4",5.0,28.0,"2014-04-14","Adas-Cog(11) Subscore","ACTOT",15.0,8.0,7.0,1.0,14.285714285714285,null,"Y",null,"2-84",56.0,28.0,2.0,84.0,"DAYS",5030.0],["CDISCPILOT01","701","701","01-701-1033","2014-03-18","2014-03-31","Xanomeline Low Dose",54.0,74.0,"65-80",2.0,"WHITE",1.0,"M","Y","Y","N","Week 16",16.0,"WEEK 4",5.0,28.0,"2014-04-14","Adas-Cog(11) Subscore","ACTOT",15.0,8.0,7.0,1.0,14.285714285714285,null,"Y","LOCF","85-140",112.0,84.0,85.0,140.0,"DAYS",5030.0],["CDISCPILOT01","701","701","01-701-1033","2014-03-18","2014-03-31","Xanomeline Low Dose",54.0,74.0,"65-80",2.0,"WHITE",1.0,"M","Y","Y","N","Week 24",24.0,"RETRIEVAL",201.0,182.0,"2014-09-15","Adas-Cog(11) Subscore","ACTOT",15.0,7.0,7.0,0.0,0.0,null,"Y",null,">140",168.0,14.0,141.0,null,"DAYS",5045.0],["CDISCPILOT01","701","701","01-701-1034","2014-07-01","2014-12-30","Xanomeline High Dose",81.0,77.0,"65-80",2.0,"WHITE",1.0,"F","Y","Y","Y","Week 8",8.0,"WEEK 8",8.0,57.0,"2014-08-26","Word Recall Task","ACITM01",1.0,5.0,5.0,0.0,0.0,null,"Y",null,"2-84",56.0,1.0,2.0,84.0,"DAYS",5016.0],["CDISCPILOT01","701","701","01-701-1034","2014-07-01","2014-12-30","Xanomeline High Dose",81.0,77.0,"65-80",2.0,"WHITE",1.0,"F","Y","Y","Y","Week 16",16.0,"WEEK 16",10.0,113.0,"2014-10-21","Word Recall Task","ACITM01",1.0,6.0,5.0,1.0,20.0,null,"Y",null,"85-140",112.0,1.0,85.0,140.0,"DAYS",5031.0],["CDISCPILOT01","701","701","01-701-1034","2014-07-01","2014-12-30","Xanomeline High Dose",81.0,77.0,"65-80",2.0,"WHITE",1.0,"F","Y","Y","Y","Week 24",24.0,"WEEK 24",12.0,170.0,"2014-12-17","Word Recall Task","ACITM01",1.0,6.0,5.0,1.0,20.0,null,"Y",null,">140",168.0,2.0,141.0,null,"DAYS",5046.0],["CDISCPILOT01","701","701","01-701-1034","2014-07-01","2014-12-30","Xanomeline High Dose",81.0,77.0,"65-80",2.0,"WHITE",1.0,"F","Y","Y","Y","Week 8",8.0,"WEEK 8",8.0,57.0,"2014-08-26","Naming Objects And Fingers (Refer To 5 C","ACITM02",2.0,1.0,0.0,1.0,null,null,"Y",null,"2-84",56.0,1.0,2.0,84.0,"DAYS",5017.0],["CDISCPILOT01","701","701","01-701-1034","2014-07-01","2014-12-30","Xanomeline High Dose",81.0,77.0,"65-80",2.0,"WHITE",1.0,"F","Y","Y","Y","Week 16",16.0,"WEEK 16",10.0,113.0,"2014-10-21","Naming Objects And Fingers (Refer To 5 C","ACITM02",2.0,1.0,0.0,1.0,null,null,"Y",null,"85-140",112.0,1.0,85.0,140.0,"DAYS",5032.0],["CDISCPILOT01","701","701","01-701-1034","2014-07-01","2014-12-30","Xanomeline High Dose",81.0,77.0,"65-80",2.0,"WHITE",1.0,"F","Y","Y","Y","Week 24",24.0,"WEEK 24",12.0,170.0,"2014-12-17","Naming Objects And Fingers (Refer To 5 C","ACITM02",2.0,1.0,0.0,1.0,null,null,"Y",null,">140",168.0,2.0,141.0,null,"DAYS",5047.0],["CDISCPILOT01","701","701","01-701-1034","2014-07-01","2014-12-30","Xanomeline High Dose",81.0,77.0,"65-80",2.0,"WHITE",1.0,"F","Y","Y","Y","Week 8",8.0,"WEEK 8",8.0,57.0,"2014-08-26","Delayed Word Recall","ACITM03",3.0,7.0,9.0,-2.0,-22.22222222222222,null,"Y",null,"2-84",56.0,1.0,2.0,84.0,"DAYS",5018.0],["CDISCPILOT01","701","701","01-701-1034","2014-07-01","2014-12-30","Xanomeline High Dose",81.0,77.0,"65-80",2.0,"WHITE",1.0,"F","Y","Y","Y","Week 16",16.0,"WEEK 16",10.0,113.0,"2014-10-21","Delayed Word Recall","ACITM03",3.0,10.0,9.0,1.0,11.11111111111111,null,"Y",null,"85-140",112.0,1.0,85.0,140.0,"DAYS",5033.0],["CDISCPILOT01","701","701","01-701-1034","2014-07-01","2014-12-30","Xanomeline High Dose",81.0,77.0,"65-80",2.0,"WHITE",1.0,"F","Y","Y","Y","Week 24",24.0,"WEEK 24",12.0,170.0,"2014-12-17","Delayed Word Recall","ACITM03",3.0,10.0,9.0,1.0,11.11111111111111,null,"Y",null,">140",168.0,2.0,141.0,null,"DAYS",5048.0],["CDISCPILOT01","701","701","01-701-1034","2014-07-01","2014-12-30","Xanomeline High Dose",81.0,77.0,"65-80",2.0,"WHITE",1.0,"F","Y","Y","Y","Week 8",8.0,"WEEK 8",8.0,57.0,"2014-08-26","Commands","ACITM04",4.0,0.0,0.0,0.0,null,null,"Y",null,"2-84",56.0,1.0,2.0,84.0,"DAYS",5019.0],["CDISCPILOT01","701","701","01-701-1034","2014-07-01","2014-12-30","Xanomeline High Dose",81.0,77.0,"65-80",2.0,"WHITE",1.0,"F","Y","Y","Y","Week 16",16.0,"WEEK 16",10.0,113.0,"2014-10-21","Commands","ACITM04",4.0,0.0,0.0,0.0,null,null,"Y",null,"85-140",112.0,1.0,85.0,140.0,"DAYS",5034.0],["CDISCPILOT01","701","701","01-701-1034","2014-07-01","2014-12-30","Xanomeline High Dose",81.0,77.0,"65-80",2.0,"WHITE",1.0,"F","Y","Y","Y","Week 24",24.0,"WEEK 24",12.0,170.0,"2014-12-17","Commands","ACITM04",4.0,0.0,0.0,0.0,null,null,"Y",null,">140",168.0,2.0,141.0,null,"DAYS",5049.0],["CDISCPILOT01","701","701","01-701-1034","2014-07-01","2014-12-30","Xanomeline High Dose",81.0,77.0,"65-80",2.0,"WHITE",1.0,"F","Y","Y","Y","Week 8",8.0,"WEEK 8",8.0,57.0,"2014-08-26","Constructional Praxis","ACITM05",5.0,1.0,2.0,-1.0,-50.0,null,"Y",null,"2-84",56.0,1.0,2.0,84.0,"DAYS",5020.0],["CDISCPILOT01","701","701","01-701-1034","2014-07-01","2014-12-30","Xanomeline High Dose",81.0,77.0,"65-80",2.0,"WHITE",1.0,"F","Y","Y","Y","Week 16",16.0,"WEEK 16",10.0,113.0,"2014-10-21","Constructional Praxis","ACITM05",5.0,3.0,2.0,1.0,50.0,null,"Y",null,"85-140",112.0,1.0,85.0,140.0,"DAYS",5035.0],["CDISCPILOT01","701","701","01-701-1034","2014-07-01","2014-12-30","Xanomeline High Dose",81.0,77.0,"65-80",2.0,"WHITE",1.0,"F","Y","Y","Y","Week 24",24.0,"WEEK 24",12.0,170.0,"2014-12-17","Constructional Praxis","ACITM05",5.0,2.0,2.0,0.0,0.0,null,"Y",null,">140",168.0,2.0,141.0,null,"DAYS",5050.0],["CDISCPILOT01","701","701","01-701-1034","2014-07-01","2014-12-30","Xanomeline High Dose",81.0,77.0,"65-80",2.0,"WHITE",1.0,"F","Y","Y","Y","Week 8",8.0,"WEEK 8",8.0,57.0,"2014-08-26","Ideational Praxis","ACITM06",6.0,0.0,1.0,-1.0,-100.0,null,"Y",null,"2-84",56.0,1.0,2.0,84.0,"DAYS",5021.0],["CDISCPILOT01","701","701","01-701-1034","2014-07-01","2014-12-30","Xanomeline High Dose",81.0,77.0,"65-80",2.0,"WHITE",1.0,"F","Y","Y","Y","Week 16",16.0,"WEEK 16",10.0,113.0,"2014-10-21","Ideational Praxis","ACITM06",6.0,0.0,1.0,-1.0,-100.0,null,"Y",null,"85-140",112.0,1.0,85.0,140.0,"DAYS",5036.0],["CDISCPILOT01","701","701","01-701-1034","2014-07-01","2014-12-30","Xanomeline High Dose",81.0,77.0,"65-80",2.0,"WHITE",1.0,"F","Y","Y","Y","Week 24",24.0,"WEEK 24",12.0,170.0,"2014-12-17","Ideational Praxis","ACITM06",6.0,0.0,1.0,-1.0,-100.0,null,"Y",null,">140",168.0,2.0,141.0,null,"DAYS",5051.0],["CDISCPILOT01","701","701","01-701-1034","2014-07-01","2014-12-30","Xanomeline High Dose",81.0,77.0,"65-80",2.0,"WHITE",1.0,"F","Y","Y","Y","Week 8",8.0,"WEEK 8",8.0,57.0,"2014-08-26","Orientation","ACITM07",7.0,0.0,0.0,0.0,null,null,"Y",null,"2-84",56.0,1.0,2.0,84.0,"DAYS",5022.0],["CDISCPILOT01","701","701","01-701-1034","2014-07-01","2014-12-30","Xanomeline High Dose",81.0,77.0,"65-80",2.0,"WHITE",1.0,"F","Y","Y","Y","Week 16",16.0,"WEEK 16",10.0,113.0,"2014-10-21","Orientation","ACITM07",7.0,0.0,0.0,0.0,null,null,"Y",null,"85-140",112.0,1.0,85.0,140.0,"DAYS",5037.0],["CDISCPILOT01","701","701","01-701-1034","2014-07-01","2014-12-30","Xanomeline High Dose",81.0,77.0,"65-80",2.0,"WHITE",1.0,"F","Y","Y","Y","Week 24",24.0,"WEEK 24",12.0,170.0,"2014-12-17","Orientation","ACITM07",7.0,0.0,0.0,0.0,null,null,"Y",null,">140",168.0,2.0,141.0,null,"DAYS",5052.0],["CDISCPILOT01","701","701","01-701-1034","2014-07-01","2014-12-30","Xanomeline High Dose",81.0,77.0,"65-80",2.0,"WHITE",1.0,"F","Y","Y","Y","Week 8",8.0,"WEEK 8",8.0,57.0,"2014-08-26","Word Recognition","ACITM08",8.0,4.0,3.0,1.0,33.33333333333333,null,"Y",null,"2-84",56.0,1.0,2.0,84.0,"DAYS",5023.0],["CDISCPILOT01","701","701","01-701-1034","2014-07-01","2014-12-30","Xanomeline High Dose",81.0,77.0,"65-80",2.0,"WHITE",1.0,"F","Y","Y","Y","Week 16",16.0,"WEEK 16",10.0,113.0,"2014-10-21","Word Recognition","ACITM08",8.0,4.0,3.0,1.0,33.33333333333333,null,"Y",null,"85-140",112.0,1.0,85.0,140.0,"DAYS",5038.0],["CDISCPILOT01","701","701","01-701-1034","2014-07-01","2014-12-30","Xanomeline High Dose",81.0,77.0,"65-80",2.0,"WHITE",1.0,"F","Y","Y","Y","Week 24",24.0,"WEEK 24",12.0,170.0,"2014-12-17","Word Recognition","ACITM08",8.0,2.0,3.0,-1.0,-33.33333333333333,null,"Y",null,">140",168.0,2.0,141.0,null,"DAYS",5053.0],["CDISCPILOT01","701","701","01-701-1034","2014-07-01","2014-12-30","Xanomeline High Dose",81.0,77.0,"65-80",2.0,"WHITE",1.0,"F","Y","Y","Y","Week 8",8.0,"WEEK 8",8.0,57.0,"2014-08-26","Attention/Visual Search Task","ACITM09",9.0,20.0,20.0,0.0,0.0,null,"Y",null,"2-84",56.0,1.0,2.0,84.0,"DAYS",5024.0],["CDISCPILOT01","701","701","01-701-1034","2014-07-01","2014-12-30","Xanomeline High Dose",81.0,77.0,"65-80",2.0,"WHITE",1.0,"F","Y","Y","Y","Week 16",16.0,"WEEK 16",10.0,113.0,"2014-10-21","Attention/Visual Search Task","ACITM09",9.0,27.0,20.0,7.0,35.0,null,"Y",null,"85-140",112.0,1.0,85.0,140.0,"DAYS",5039.0],["CDISCPILOT01","701","701","01-701-1034","2014-07-01","2014-12-30","Xanomeline High Dose",81.0,77.0,"65-80",2.0,"WHITE",1.0,"F","Y","Y","Y","Week 24",24.0,"WEEK 24",12.0,170.0,"2014-12-17","Attention/Visual Search Task","ACITM09",9.0,31.0,20.0,11.0,55.00000000000001,null,"Y",null,">140",168.0,2.0,141.0,null,"DAYS",5054.0],["CDISCPILOT01","701","701","01-701-1034","2014-07-01","2014-12-30","Xanomeline High Dose",81.0,77.0,"65-80",2.0,"WHITE",1.0,"F","Y","Y","Y","Week 8",8.0,"WEEK 8",8.0,57.0,"2014-08-26","Maze Solution","ACITM10",10.0,4.0,5.0,-1.0,-20.0,null,"Y",null,"2-84",56.0,1.0,2.0,84.0,"DAYS",5025.0],["CDISCPILOT01","701","701","01-701-1034","2014-07-01","2014-12-30","Xanomeline High Dose",81.0,77.0,"65-80",2.0,"WHITE",1.0,"F","Y","Y","Y","Week 16",16.0,"WEEK 16",10.0,113.0,"2014-10-21","Maze Solution","ACITM10",10.0,5.0,5.0,0.0,0.0,null,"Y",null,"85-140",112.0,1.0,85.0,140.0,"DAYS",5040.0],["CDISCPILOT01","701","701","01-701-1034","2014-07-01","2014-12-30","Xanomeline High Dose",81.0,77.0,"65-80",2.0,"WHITE",1.0,"F","Y","Y","Y","Week 24",24.0,"WEEK 24",12.0,170.0,"2014-12-17","Maze Solution","ACITM10",10.0,7.0,5.0,2.0,40.0,null,"Y",null,">140",168.0,2.0,141.0,null,"DAYS",5055.0],["CDISCPILOT01","701","701","01-701-1034","2014-07-01","2014-12-30","Xanomeline High Dose",81.0,77.0,"65-80",2.0,"WHITE",1.0,"F","Y","Y","Y","Week 8",8.0,"WEEK 8",8.0,57.0,"2014-08-26","Spoken Language Ability","ACITM11",11.0,0.0,0.0,0.0,null,null,"Y",null,"2-84",56.0,1.0,2.0,84.0,"DAYS",5026.0],["CDISCPILOT01","701","701","01-701-1034","2014-07-01","2014-12-30","Xanomeline High Dose",81.0,77.0,"65-80",2.0,"WHITE",1.0,"F","Y","Y","Y","Week 16",16.0,"WEEK 16",10.0,113.0,"2014-10-21","Spoken Language Ability","ACITM11",11.0,0.0,0.0,0.0,null,null,"Y",null,"85-140",112.0,1.0,85.0,140.0,"DAYS",5041.0],["CDISCPILOT01","701","701","01-701-1034","2014-07-01","2014-12-30","Xanomeline High Dose",81.0,77.0,"65-80",2.0,"WHITE",1.0,"F","Y","Y","Y","Week 24",24.0,"WEEK 24",12.0,170.0,"2014-12-17","Spoken Language Ability","ACITM11",11.0,0.0,0.0,0.0,null,null,"Y",null,">140",168.0,2.0,141.0,null,"DAYS",5056.0],["CDISCPILOT01","701","701","01-701-1034","2014-07-01","2014-12-30","Xanomeline High Dose",81.0,77.0,"65-80",2.0,"WHITE",1.0,"F","Y","Y","Y","Week 8",8.0,"WEEK 8",8.0,57.0,"2014-08-26","Comprehension Of Spoken Language","ACITM12",12.0,0.0,0.0,0.0,null,null,"Y",null,"2-84",56.0,1.0,2.0,84.0,"DAYS",5027.0],["CDISCPILOT01","701","701","01-701-1034","2014-07-01","2014-12-30","Xanomeline High Dose",81.0,77.0,"65-80",2.0,"WHITE",1.0,"F","Y","Y","Y","Week 16",16.0,"WEEK 16",10.0,113.0,"2014-10-21","Comprehension Of Spoken Language","ACITM12",12.0,0.0,0.0,0.0,null,null,"Y",null,"85-140",112.0,1.0,85.0,140.0,"DAYS",5042.0],["CDISCPILOT01","701","701","01-701-1034","2014-07-01","2014-12-30","Xanomeline High Dose",81.0,77.0,"65-80",2.0,"WHITE",1.0,"F","Y","Y","Y","Week 24",24.0,"WEEK 24",12.0,170.0,"2014-12-17","Comprehension Of Spoken Language","ACITM12",12.0,0.0,0.0,0.0,null,null,"Y",null,">140",168.0,2.0,141.0,null,"DAYS",5057.0],["CDISCPILOT01","701","701","01-701-1034","2014-07-01","2014-12-30","Xanomeline High Dose",81.0,77.0,"65-80",2.0,"WHITE",1.0,"F","Y","Y","Y","Week 8",8.0,"WEEK 8",8.0,57.0,"2014-08-26","Word Finding Difficulty In Spontaneous S","ACITM13",13.0,1.0,0.0,1.0,null,null,"Y",null,"2-84",56.0,1.0,2.0,84.0,"DAYS",5028.0],["CDISCPILOT01","701","701","01-701-1034","2014-07-01","2014-12-30","Xanomeline High Dose",81.0,77.0,"65-80",2.0,"WHITE",1.0,"F","Y","Y","Y","Week 16",16.0,"WEEK 16",10.0,113.0,"2014-10-21","Word Finding Difficulty In Spontaneous S","ACITM13",13.0,0.0,0.0,0.0,null,null,"Y",null,"85-140",112.0,1.0,85.0,140.0,"DAYS",5043.0],["CDISCPILOT01","701","701","01-701-1034","2014-07-01","2014-12-30","Xanomeline High Dose",81.0,77.0,"65-80",2.0,"WHITE",1.0,"F","Y","Y","Y","Week 24",24.0,"WEEK 24",12.0,170.0,"2014-12-17","Word Finding Difficulty In Spontaneous S","ACITM13",13.0,0.0,0.0,0.0,null,null,"Y",null,">140",168.0,2.0,141.0,null,"DAYS",5058.0],["CDISCPILOT01","701","701","01-701-1034","2014-07-01","2014-12-30","Xanomeline High Dose",81.0,77.0,"65-80",2.0,"WHITE",1.0,"F","Y","Y","Y","Week 8",8.0,"WEEK 8",8.0,57.0,"2014-08-26","Recall Of Test Instructions","ACITM14",14.0,0.0,0.0,0.0,null,null,"Y",null,"2-84",56.0,1.0,2.0,84.0,"DAYS",5029.0],["CDISCPILOT01","701","701","01-701-1034","2014-07-01","2014-12-30","Xanomeline High Dose",81.0,77.0,"65-80",2.0,"WHITE",1.0,"F","Y","Y","Y","Week 16",16.0,"WEEK 16",10.0,113.0,"2014-10-21","Recall Of Test Instructions","ACITM14",14.0,0.0,0.0,0.0,null,null,"Y",null,"85-140",112.0,1.0,85.0,140.0,"DAYS",5044.0],["CDISCPILOT01","701","701","01-701-1034","2014-07-01","2014-12-30","Xanomeline High Dose",81.0,77.0,"65-80",2.0,"WHITE",1.0,"F","Y","Y","Y","Week 24",24.0,"WEEK 24",12.0,170.0,"2014-12-17","Recall Of Test Instructions","ACITM14",14.0,0.0,0.0,0.0,null,null,"Y",null,">140",168.0,2.0,141.0,null,"DAYS",5059.0],["CDISCPILOT01","701","701","01-701-1034","2014-07-01","2014-12-30","Xanomeline High Dose",81.0,77.0,"65-80",2.0,"WHITE",1.0,"F","Y","Y","Y","Week 8",8.0,"WEEK 8",8.0,57.0,"2014-08-26","Adas-Cog(11) Subscore","ACTOT",15.0,12.0,11.0,1.0,9.090909090909092,null,"Y",null,"2-84",56.0,1.0,2.0,84.0,"DAYS",5030.0],["CDISCPILOT01","701","701","01-701-1034","2014-07-01","2014-12-30","Xanomeline High Dose",81.0,77.0,"65-80",2.0,"WHITE",1.0,"F","Y","Y","Y","Week 16",16.0,"WEEK 16",10.0,113.0,"2014-10-21","Adas-Cog(11) Subscore","ACTOT",15.0,14.0,11.0,3.0,27.27272727272727,null,"Y",null,"85-140",112.0,1.0,85.0,140.0,"DAYS",5045.0],["CDISCPILOT01","701","701","01-701-1034","2014-07-01","2014-12-30","Xanomeline High Dose",81.0,77.0,"65-80",2.0,"WHITE",1.0,"F","Y","Y","Y","Week 24",24.0,"WEEK 24",12.0,170.0,"2014-12-17","Adas-Cog(11) Subscore","ACTOT",15.0,11.0,11.0,0.0,0.0,null,"Y",null,">140",168.0,2.0,141.0,null,"DAYS",5060.0],["CDISCPILOT01","701","701","01-701-1047","2013-02-12","2013-03-09","Placebo",0.0,85.0,">80",3.0,"WHITE",1.0,"F","Y","Y","N","Week 8",8.0,"AMBUL ECG REMOVAL",6.0,46.0,"2013-03-29","Word Recall Task","ACITM01",1.0,7.0,6.0,1.0,16.666666666666664,null,"Y",null,"2-84",56.0,10.0,2.0,84.0,"DAYS",5016.0],["CDISCPILOT01","701","701","01-701-1047","2013-02-12","2013-03-09","Placebo",0.0,85.0,">80",3.0,"WHITE",1.0,"F","Y","Y","N","Week 24",24.0,"RETRIEVAL",201.0,167.0,"2013-07-28","Word Recall Task","ACITM01",1.0,7.0,6.0,1.0,16.666666666666664,null,"Y",null,">140",168.0,1.0,141.0,null,"DAYS",5031.0],["CDISCPILOT01","701","701","01-701-1047","2013-02-12","2013-03-09","Placebo",0.0,85.0,">80",3.0,"WHITE",1.0,"F","Y","Y","N","Week 8",8.0,"AMBUL ECG REMOVAL",6.0,46.0,"2013-03-29","Naming Objects And Fingers (Refer To 5 C","ACITM02",2.0,0.0,0.0,0.0,null,null,"Y",null,"2-84",56.0,10.0,2.0,84.0,"DAYS",5017.0],["CDISCPILOT01","701","701","01-701-1047","2013-02-12","2013-03-09","Placebo",0.0,85.0,">80",3.0,"WHITE",1.0,"F","Y","Y","N","Week 24",24.0,"RETRIEVAL",201.0,167.0,"2013-07-28","Naming Objects And Fingers (Refer To 5 C","ACITM02",2.0,0.0,0.0,0.0,null,null,"Y",null,">140",168.0,1.0,141.0,null,"DAYS",5032.0],["CDISCPILOT01","701","701","01-701-1047","2013-02-12","2013-03-09","Placebo",0.0,85.0,">80",3.0,"WHITE",1.0,"F","Y","Y","N","Week 8",8.0,"AMBUL ECG REMOVAL",6.0,46.0,"2013-03-29","Delayed Word Recall","ACITM03",3.0,10.0,10.0,0.0,0.0,null,"Y",null,"2-84",56.0,10.0,2.0,84.0,"DAYS",5018.0],["CDISCPILOT01","701","701","01-701-1047","2013-02-12","2013-03-09","Placebo",0.0,85.0,">80",3.0,"WHITE",1.0,"F","Y","Y","N","Week 24",24.0,"RETRIEVAL",201.0,167.0,"2013-07-28","Delayed Word Recall","ACITM03",3.0,10.0,10.0,0.0,0.0,null,"Y",null,">140",168.0,1.0,141.0,null,"DAYS",5033.0],["CDISCPILOT01","701","701","01-701-1047","2013-02-12","2013-03-09","Placebo",0.0,85.0,">80",3.0,"WHITE",1.0,"F","Y","Y","N","Week 8",8.0,"AMBUL ECG REMOVAL",6.0,46.0,"2013-03-29","Commands","ACITM04",4.0,0.0,0.0,0.0,null,null,"Y",null,"2-84",56.0,10.0,2.0,84.0,"DAYS",5019.0],["CDISCPILOT01","701","701","01-701-1047","2013-02-12","2013-03-09","Placebo",0.0,85.0,">80",3.0,"WHITE",1.0,"F","Y","Y","N","Week 24",24.0,"RETRIEVAL",201.0,167.0,"2013-07-28","Commands","ACITM04",4.0,0.0,0.0,0.0,null,null,"Y",null,">140",168.0,1.0,141.0,null,"DAYS",5034.0],["CDISCPILOT01","701","701","01-701-1047","2013-02-12","2013-03-09","Placebo",0.0,85.0,">80",3.0,"WHITE",1.0,"F","Y","Y","N","Week 8",8.0,"AMBUL ECG REMOVAL",6.0,46.0,"2013-03-29","Constructional Praxis","ACITM05",5.0,0.0,1.0,-1.0,-100.0,null,"Y",null,"2-84",56.0,10.0,2.0,84.0,"DAYS",5020.0],["CDISCPILOT01","701","701","01-701-1047","2013-02-12","2013-03-09","Placebo",0.0,85.0,">80",3.0,"WHITE",1.0,"F","Y","Y","N","Week 24",24.0,"RETRIEVAL",201.0,167.0,"2013-07-28","Constructional Praxis","ACITM05",5.0,1.0,1.0,0.0,0.0,null,"Y",null,">140",168.0,1.0,141.0,null,"DAYS",5035.0],["CDISCPILOT01","701","701","01-701-1047","2013-02-12","2013-03-09","Placebo",0.0,85.0,">80",3.0,"WHITE",1.0,"F","Y","Y","N","Week 8",8.0,"AMBUL ECG REMOVAL",6.0,46.0,"2013-03-29","Ideational Praxis","ACITM06",6.0,1.0,0.0,1.0,null,null,"Y",null,"2-84",56.0,10.0,2.0,84.0,"DAYS",5021.0],["CDISCPILOT01","701","701","01-701-1047","2013-02-12","2013-03-09","Placebo",0.0,85.0,">80",3.0,"WHITE",1.0,"F","Y","Y","N","Week 24",24.0,"RETRIEVAL",201.0,167.0,"2013-07-28","Ideational Praxis","ACITM06",6.0,0.0,0.0,0.0,null,null,"Y",null,">140",168.0,1.0,141.0,null,"DAYS",5036.0],["CDISCPILOT01","701","701","01-701-1047","2013-02-12","2013-03-09","Placebo",0.0,85.0,">80",3.0,"WHITE",1.0,"F","Y","Y","N","Week 8",8.0,"AMBUL ECG REMOVAL",6.0,46.0,"2013-03-29","Orientation","ACITM07",7.0,1.0,0.0,1.0,null,null,"Y",null,"2-84",56.0,10.0,2.0,84.0,"DAYS",5022.0],["CDISCPILOT01","701","701","01-701-1047","2013-02-12","2013-03-09","Placebo",0.0,85.0,">80",3.0,"WHITE",1.0,"F","Y","Y","N","Week 24",24.0,"RETRIEVAL",201.0,167.0,"2013-07-28","Orientation","ACITM07",7.0,2.0,0.0,2.0,null,null,"Y",null,">140",168.0,1.0,141.0,null,"DAYS",5037.0],["CDISCPILOT01","701","701","01-701-1047","2013-02-12","2013-03-09","Placebo",0.0,85.0,">80",3.0,"WHITE",1.0,"F","Y","Y","N","Week 8",8.0,"AMBUL ECG REMOVAL",6.0,46.0,"2013-03-29","Word Recognition","ACITM08",8.0,5.0,3.0,2.0,66.66666666666666,null,"Y",null,"2-84",56.0,10.0,2.0,84.0,"DAYS",5023.0],["CDISCPILOT01","701","701","01-701-1047","2013-02-12","2013-03-09","Placebo",0.0,85.0,">80",3.0,"WHITE",1.0,"F","Y","Y","N","Week 24",24.0,"RETRIEVAL",201.0,167.0,"2013-07-28","Word Recognition","ACITM08",8.0,3.0,3.0,0.0,0.0,null,"Y",null,">140",168.0,1.0,141.0,null,"DAYS",5038.0],["CDISCPILOT01","701","701","01-701-1047","2013-02-12","2013-03-09","Placebo",0.0,85.0,">80",3.0,"WHITE",1.0,"F","Y","Y","N","Week 8",8.0,"AMBUL ECG REMOVAL",6.0,46.0,"2013-03-29","Attention/Visual Search Task","ACITM09",9.0,37.0,26.0,11.0,42.30769230769231,null,"Y",null,"2-84",56.0,10.0,2.0,84.0,"DAYS",5024.0],["CDISCPILOT01","701","701","01-701-1047","2013-02-12","2013-03-09","Placebo",0.0,85.0,">80",3.0,"WHITE",1.0,"F","Y","Y","N","Week 24",24.0,"RETRIEVAL",201.0,167.0,"2013-07-28","Attention/Visual Search Task","ACITM09",9.0,33.0,26.0,7.0,26.923076923076923,null,"Y",null,">140",168.0,1.0,141.0,null,"DAYS",5039.0],["CDISCPILOT01","701","701","01-701-1047","2013-02-12","2013-03-09","Placebo",0.0,85.0,">80",3.0,"WHITE",1.0,"F","Y","Y","N","Week 8",8.0,"AMBUL ECG REMOVAL",6.0,46.0,"2013-03-29","Maze Solution","ACITM10",10.0,5.0,7.0,-2.0,-28.57142857142857,null,"Y",null,"2-84",56.0,10.0,2.0,84.0,"DAYS",5025.0],["CDISCPILOT01","701","701","01-701-1047","2013-02-12","2013-03-09","Placebo",0.0,85.0,">80",3.0,"WHITE",1.0,"F","Y","Y","N","Week 24",24.0,"RETRIEVAL",201.0,167.0,"2013-07-28","Maze Solution","ACITM10",10.0,5.0,7.0,-2.0,-28.57142857142857,null,"Y",null,">140",168.0,1.0,141.0,null,"DAYS",5040.0],["CDISCPILOT01","701","701","01-701-1047","2013-02-12","2013-03-09","Placebo",0.0,85.0,">80",3.0,"WHITE",1.0,"F","Y","Y","N","Week 8",8.0,"AMBUL ECG REMOVAL",6.0,46.0,"2013-03-29","Spoken Language Ability","ACITM11",11.0,0.0,0.0,0.0,null,null,"Y",null,"2-84",56.0,10.0,2.0,84.0,"DAYS",5026.0],["CDISCPILOT01","701","701","01-701-1047","2013-02-12","2013-03-09","Placebo",0.0,85.0,">80",3.0,"WHITE",1.0,"F","Y","Y","N","Week 24",24.0,"RETRIEVAL",201.0,167.0,"2013-07-28","Spoken Language Ability","ACITM11",11.0,1.0,0.0,1.0,null,null,"Y",null,">140",168.0,1.0,141.0,null,"DAYS",5041.0],["CDISCPILOT01","701","701","01-701-1047","2013-02-12","2013-03-09","Placebo",0.0,85.0,">80",3.0,"WHITE",1.0,"F","Y","Y","N","Week 8",8.0,"AMBUL ECG REMOVAL",6.0,46.0,"2013-03-29","Comprehension Of Spoken Language","ACITM12",12.0,0.0,0.0,0.0,null,null,"Y",null,"2-84",56.0,10.0,2.0,84.0,"DAYS",5027.0],["CDISCPILOT01","701","701","01-701-1047","2013-02-12","2013-03-09","Placebo",0.0,85.0,">80",3.0,"WHITE",1.0,"F","Y","Y","N","Week 24",24.0,"RETRIEVAL",201.0,167.0,"2013-07-28","Comprehension Of Spoken Language","ACITM12",12.0,2.0,0.0,2.0,null,null,"Y",null,">140",168.0,1.0,141.0,null,"DAYS",5042.0],["CDISCPILOT01","701","701","01-701-1047","2013-02-12","2013-03-09","Placebo",0.0,85.0,">80",3.0,"WHITE",1.0,"F","Y","Y","N","Week 8",8.0,"AMBUL ECG REMOVAL",6.0,46.0,"2013-03-29","Word Finding Difficulty In Spontaneous S","ACITM13",13.0,0.0,0.0,0.0,null,null,"Y",null,"2-84",56.0,10.0,2.0,84.0,"DAYS",5028.0],["CDISCPILOT01","701","701","01-701-1047","2013-02-12","2013-03-09","Placebo",0.0,85.0,">80",3.0,"WHITE",1.0,"F","Y","Y","N","Week 24",24.0,"RETRIEVAL",201.0,167.0,"2013-07-28","Word Finding Difficulty In Spontaneous S","ACITM13",13.0,1.0,0.0,1.0,null,null,"Y",null,">140",168.0,1.0,141.0,null,"DAYS",5043.0],["CDISCPILOT01","701","701","01-701-1047","2013-02-12","2013-03-09","Placebo",0.0,85.0,">80",3.0,"WHITE",1.0,"F","Y","Y","N","Week 8",8.0,"AMBUL ECG REMOVAL",6.0,46.0,"2013-03-29","Recall Of Test Instructions","ACITM14",14.0,0.0,0.0,0.0,null,null,"Y",null,"2-84",56.0,10.0,2.0,84.0,"DAYS",5029.0],["CDISCPILOT01","701","701","01-701-1047","2013-02-12","2013-03-09","Placebo",0.0,85.0,">80",3.0,"WHITE",1.0,"F","Y","Y","N","Week 24",24.0,"RETRIEVAL",201.0,167.0,"2013-07-28","Recall Of Test Instructions","ACITM14",14.0,2.0,0.0,2.0,null,null,"Y",null,">140",168.0,1.0,141.0,null,"DAYS",5044.0],["CDISCPILOT01","701","701","01-701-1047","2013-02-12","2013-03-09","Placebo",0.0,85.0,">80",3.0,"WHITE",1.0,"F","Y","Y","N","Week 8",8.0,"AMBUL ECG REMOVAL",6.0,46.0,"2013-03-29","Adas-Cog(11) Subscore","ACTOT",15.0,14.0,10.0,4.0,40.0,null,"Y",null,"2-84",56.0,10.0,2.0,84.0,"DAYS",5030.0],["CDISCPILOT01","701","701","01-701-1047","2013-02-12","2013-03-09","Placebo",0.0,85.0,">80",3.0,"WHITE",1.0,"F","Y","Y","N","Week 16",16.0,"AMBUL ECG REMOVAL",6.0,46.0,"2013-03-29","Adas-Cog(11) Subscore","ACTOT",15.0,14.0,10.0,4.0,40.0,null,"Y","LOCF","85-140",112.0,66.0,85.0,140.0,"DAYS",5030.0],["CDISCPILOT01","701","701","01-701-1047","2013-02-12","2013-03-09","Placebo",0.0,85.0,">80",3.0,"WHITE",1.0,"F","Y","Y","N","Week 24",24.0,"RETRIEVAL",201.0,167.0,"2013-07-28","Adas-Cog(11) Subscore","ACTOT",15.0,19.0,10.0,9.0,90.0,null,"Y",null,">140",168.0,1.0,141.0,null,"DAYS",5045.0],["CDISCPILOT01","701","701","01-701-1097","2014-01-01","2014-07-09","Xanomeline Low Dose",54.0,68.0,"65-80",2.0,"WHITE",1.0,"M","Y","Y","Y","Week 8",8.0,"WEEK 8",8.0,57.0,"2014-02-26","Word Recall Task","ACITM01",1.0,9.0,10.0,-1.0,-10.0,null,"Y",null,"2-84",56.0,1.0,2.0,84.0,"DAYS",5016.0],["CDISCPILOT01","701","701","01-701-1097","2014-01-01","2014-07-09","Xanomeline Low Dose",54.0,68.0,"65-80",2.0,"WHITE",1.0,"M","Y","Y","Y","Week 16",16.0,"WEEK 16",10.0,113.0,"2014-04-23","Word Recall Task","ACITM01",1.0,9.0,10.0,-1.0,-10.0,null,"Y",null,"85-140",112.0,1.0,85.0,140.0,"DAYS",5031.0],["CDISCPILOT01","701","701","01-701-1097","2014-01-01","2014-07-09","Xanomeline Low Dose",54.0,68.0,"65-80",2.0,"WHITE",1.0,"M","Y","Y","Y","Week 24",24.0,"WEEK 24",12.0,169.0,"2014-06-18","Word Recall Task","ACITM01",1.0,9.0,10.0,-1.0,-10.0,null,"Y",null,">140",168.0,1.0,141.0,null,"DAYS",5046.0],["CDISCPILOT01","701","701","01-701-1097","2014-01-01","2014-07-09","Xanomeline Low Dose",54.0,68.0,"65-80",2.0,"WHITE",1.0,"M","Y","Y","Y","Week 8",8.0,"WEEK 8",8.0,57.0,"2014-02-26","Naming Objects And Fingers (Refer To 5 C","ACITM02",2.0,5.0,5.0,0.0,0.0,null,"Y",null,"2-84",56.0,1.0,2.0,84.0,"DAYS",5017.0],["CDISCPILOT01","701","701","01-701-1097","2014-01-01","2014-07-09","Xanomeline Low Dose",54.0,68.0,"65-80",2.0,"WHITE",1.0,"M","Y","Y","Y","Week 16",16.0,"WEEK 16",10.0,113.0,"2014-04-23","Naming Objects And Fingers (Refer To 5 C","ACITM02",2.0,5.0,5.0,0.0,0.0,null,"Y",null,"85-140",112.0,1.0,85.0,140.0,"DAYS",5032.0],["CDISCPILOT01","701","701","01-701-1097","2014-01-01","2014-07-09","Xanomeline Low Dose",54.0,68.0,"65-80",2.0,"WHITE",1.0,"M","Y","Y","Y","Week 24",24.0,"WEEK 24",12.0,169.0,"2014-06-18","Naming Objects And Fingers (Refer To 5 C","ACITM02",2.0,5.0,5.0,0.0,0.0,null,"Y",null,">140",168.0,1.0,141.0,null,"DAYS",5047.0],["CDISCPILOT01","701","701","01-701-1097","2014-01-01","2014-07-09","Xanomeline Low Dose",54.0,68.0,"65-80",2.0,"WHITE",1.0,"M","Y","Y","Y","Week 8",8.0,"WEEK 8",8.0,57.0,"2014-02-26","Delayed Word Recall","ACITM03",3.0,10.0,10.0,0.0,0.0,null,"Y",null,"2-84",56.0,1.0,2.0,84.0,"DAYS",5018.0],["CDISCPILOT01","701","701","01-701-1097","2014-01-01","2014-07-09","Xanomeline Low Dose",54.0,68.0,"65-80",2.0,"WHITE",1.0,"M","Y","Y","Y","Week 16",16.0,"WEEK 16",10.0,113.0,"2014-04-23","Delayed Word Recall","ACITM03",3.0,10.0,10.0,0.0,0.0,null,"Y",null,"85-140",112.0,1.0,85.0,140.0,"DAYS",5033.0],["CDISCPILOT01","701","701","01-701-1097","2014-01-01","2014-07-09","Xanomeline Low Dose",54.0,68.0,"65-80",2.0,"WHITE",1.0,"M","Y","Y","Y","Week 24",24.0,"WEEK 24",12.0,169.0,"2014-06-18","Delayed Word Recall","ACITM03",3.0,10.0,10.0,0.0,0.0,null,"Y",null,">140",168.0,1.0,141.0,null,"DAYS",5048.0],["CDISCPILOT01","701","701","01-701-1097","2014-01-01","2014-07-09","Xanomeline Low Dose",54.0,68.0,"65-80",2.0,"WHITE",1.0,"M","Y","Y","Y","Week 8",8.0,"WEEK 8",8.0,57.0,"2014-02-26","Commands","ACITM04",4.0,1.0,3.0,-2.0,-66.66666666666666,null,"Y",null,"2-84",56.0,1.0,2.0,84.0,"DAYS",5019.0],["CDISCPILOT01","701","701","01-701-1097","2014-01-01","2014-07-09","Xanomeline Low Dose",54.0,68.0,"65-80",2.0,"WHITE",1.0,"M","Y","Y","Y","Week 16",16.0,"WEEK 16",10.0,113.0,"2014-04-23","Commands","ACITM04",4.0,1.0,3.0,-2.0,-66.66666666666666,null,"Y",null,"85-140",112.0,1.0,85.0,140.0,"DAYS",5034.0],["CDISCPILOT01","701","701","01-701-1097","2014-01-01","2014-07-09","Xanomeline Low Dose",54.0,68.0,"65-80",2.0,"WHITE",1.0,"M","Y","Y","Y","Week 24",24.0,"WEEK 24",12.0,169.0,"2014-06-18","Commands","ACITM04",4.0,3.0,3.0,0.0,0.0,null,"Y",null,">140",168.0,1.0,141.0,null,"DAYS",5049.0],["CDISCPILOT01","701","701","01-701-1097","2014-01-01","2014-07-09","Xanomeline Low Dose",54.0,68.0,"65-80",2.0,"WHITE",1.0,"M","Y","Y","Y","Week 8",8.0,"WEEK 8",8.0,57.0,"2014-02-26","Constructional Praxis","ACITM05",5.0,3.0,4.0,-1.0,-25.0,null,"Y",null,"2-84",56.0,1.0,2.0,84.0,"DAYS",5020.0],["CDISCPILOT01","701","701","01-701-1097","2014-01-01","2014-07-09","Xanomeline Low Dose",54.0,68.0,"65-80",2.0,"WHITE",1.0,"M","Y","Y","Y","Week 16",16.0,"WEEK 16",10.0,113.0,"2014-04-23","Constructional Praxis","ACITM05",5.0,4.0,4.0,0.0,0.0,null,"Y",null,"85-140",112.0,1.0,85.0,140.0,"DAYS",5035.0],["CDISCPILOT01","701","701","01-701-1097","2014-01-01","2014-07-09","Xanomeline Low Dose",54.0,68.0,"65-80",2.0,"WHITE",1.0,"M","Y","Y","Y","Week 24",24.0,"WEEK 24",12.0,169.0,"2014-06-18","Constructional Praxis","ACITM05",5.0,2.0,4.0,-2.0,-50.0,null,"Y",null,">140",168.0,1.0,141.0,null,"DAYS",5050.0],["CDISCPILOT01","701","701","01-701-1097","2014-01-01","2014-07-09","Xanomeline Low Dose",54.0,68.0,"65-80",2.0,"WHITE",1.0,"M","Y","Y","Y","Week 8",8.0,"WEEK 8",8.0,57.0,"2014-02-26","Ideational Praxis","ACITM06",6.0,4.0,5.0,-1.0,-20.0,null,"Y",null,"2-84",56.0,1.0,2.0,84.0,"DAYS",5021.0],["CDISCPILOT01","701","701","01-701-1097","2014-01-01","2014-07-09","Xanomeline Low Dose",54.0,68.0,"65-80",2.0,"WHITE",1.0,"M","Y","Y","Y","Week 16",16.0,"WEEK 16",10.0,113.0,"2014-04-23","Ideational Praxis","ACITM06",6.0,4.0,5.0,-1.0,-20.0,null,"Y",null,"85-140",112.0,1.0,85.0,140.0,"DAYS",5036.0],["CDISCPILOT01","701","701","01-701-1097","2014-01-01","2014-07-09","Xanomeline Low Dose",54.0,68.0,"65-80",2.0,"WHITE",1.0,"M","Y","Y","Y","Week 24",24.0,"WEEK 24",12.0,169.0,"2014-06-18","Ideational Praxis","ACITM06",6.0,5.0,5.0,0.0,0.0,null,"Y",null,">140",168.0,1.0,141.0,null,"DAYS",5051.0],["CDISCPILOT01","701","701","01-701-1097","2014-01-01","2014-07-09","Xanomeline Low Dose",54.0,68.0,"65-80",2.0,"WHITE",1.0,"M","Y","Y","Y","Week 8",8.0,"WEEK 8",8.0,57.0,"2014-02-26","Orientation","ACITM07",7.0,7.0,7.0,0.0,0.0,null,"Y",null,"2-84",56.0,1.0,2.0,84.0,"DAYS",5022.0],["CDISCPILOT01","701","701","01-701-1097","2014-01-01","2014-07-09","Xanomeline Low Dose",54.0,68.0,"65-80",2.0,"WHITE",1.0,"M","Y","Y","Y","Week 16",16.0,"WEEK 16",10.0,113.0,"2014-04-23","Orientation","ACITM07",7.0,7.0,7.0,0.0,0.0,null,"Y",null,"85-140",112.0,1.0,85.0,140.0,"DAYS",5037.0],["CDISCPILOT01","701","701","01-701-1097","2014-01-01","2014-07-09","Xanomeline Low Dose",54.0,68.0,"65-80",2.0,"WHITE",1.0,"M","Y","Y","Y","Week 24",24.0,"WEEK 24",12.0,169.0,"2014-06-18","Orientation","ACITM07",7.0,7.0,7.0,0.0,0.0,null,"Y",null,">140",168.0,1.0,141.0,null,"DAYS",5052.0],["CDISCPILOT01","701","701","01-701-1097","2014-01-01","2014-07-09","Xanomeline Low Dose",54.0,68.0,"65-80",2.0,"WHITE",1.0,"M","Y","Y","Y","Week 8",8.0,"WEEK 8",8.0,57.0,"2014-02-26","Word Recognition","ACITM08",8.0,12.0,null,null,null,null,"Y",null,"2-84",56.0,1.0,2.0,84.0,"DAYS",5023.0],["CDISCPILOT01","701","701","01-701-1097","2014-01-01","2014-07-09","Xanomeline Low Dose",54.0,68.0,"65-80",2.0,"WHITE",1.0,"M","Y","Y","Y","Week 16",16.0,"WEEK 16",10.0,113.0,"2014-04-23","Word Recognition","ACITM08",8.0,10.0,null,null,null,null,"Y",null,"85-140",112.0,1.0,85.0,140.0,"DAYS",5038.0],["CDISCPILOT01","701","701","01-701-1097","2014-01-01","2014-07-09","Xanomeline Low Dose",54.0,68.0,"65-80",2.0,"WHITE",1.0,"M","Y","Y","Y","Week 24",24.0,"WEEK 24",12.0,169.0,"2014-06-18","Word Recognition","ACITM08",8.0,9.0,null,null,null,null,"Y",null,">140",168.0,1.0,141.0,null,"DAYS",5053.0],["CDISCPILOT01","701","701","01-701-1097","2014-01-01","2014-07-09","Xanomeline Low Dose",54.0,68.0,"65-80",2.0,"WHITE",1.0,"M","Y","Y","Y","Week 8",8.0,"WEEK 8",8.0,57.0,"2014-02-26","Attention/Visual Search Task","ACITM09",9.0,5.0,0.0,5.0,null,null,"Y",null,"2-84",56.0,1.0,2.0,84.0,"DAYS",5024.0],["CDISCPILOT01","701","701","01-701-1097","2014-01-01","2014-07-09","Xanomeline Low Dose",54.0,68.0,"65-80",2.0,"WHITE",1.0,"M","Y","Y","Y","Week 16",16.0,"WEEK 16",10.0,113.0,"2014-04-23","Attention/Visual Search Task","ACITM09",9.0,4.0,0.0,4.0,null,null,"Y",null,"85-140",112.0,1.0,85.0,140.0,"DAYS",5039.0],["CDISCPILOT01","701","701","01-701-1097","2014-01-01","2014-07-09","Xanomeline Low Dose",54.0,68.0,"65-80",2.0,"WHITE",1.0,"M","Y","Y","Y","Week 24",24.0,"WEEK 24",12.0,169.0,"2014-06-18","Attention/Visual Search Task","ACITM09",9.0,5.0,0.0,5.0,null,null,"Y",null,">140",168.0,1.0,141.0,null,"DAYS",5054.0],["CDISCPILOT01","701","701","01-701-1097","2014-01-01","2014-07-09","Xanomeline Low Dose",54.0,68.0,"65-80",2.0,"WHITE",1.0,"M","Y","Y","Y","Week 8",8.0,"WEEK 8",8.0,57.0,"2014-02-26","Maze Solution","ACITM10",10.0,240.0,240.0,0.0,0.0,null,"Y",null,"2-84",56.0,1.0,2.0,84.0,"DAYS",5025.0],["CDISCPILOT01","701","701","01-701-1097","2014-01-01","2014-07-09","Xanomeline Low Dose",54.0,68.0,"65-80",2.0,"WHITE",1.0,"M","Y","Y","Y","Week 16",16.0,"WEEK 16",10.0,113.0,"2014-04-23","Maze Solution","ACITM10",10.0,41.0,240.0,-199.0,-82.91666666666667,null,"Y",null,"85-140",112.0,1.0,85.0,140.0,"DAYS",5040.0],["CDISCPILOT01","701","701","01-701-1097","2014-01-01","2014-07-09","Xanomeline Low Dose",54.0,68.0,"65-80",2.0,"WHITE",1.0,"M","Y","Y","Y","Week 24",24.0,"WEEK 24",12.0,169.0,"2014-06-18","Maze Solution","ACITM10",10.0,11.0,240.0,-229.0,-95.41666666666667,null,"Y",null,">140",168.0,1.0,141.0,null,"DAYS",5055.0],["CDISCPILOT01","701","701","01-701-1097","2014-01-01","2014-07-09","Xanomeline Low Dose",54.0,68.0,"65-80",2.0,"WHITE",1.0,"M","Y","Y","Y","Week 8",8.0,"WEEK 8",8.0,57.0,"2014-02-26","Spoken Language Ability","ACITM11",11.0,3.0,3.0,0.0,0.0,null,"Y",null,"2-84",56.0,1.0,2.0,84.0,"DAYS",5026.0],["CDISCPILOT01","701","701","01-701-1097","2014-01-01","2014-07-09","Xanomeline Low Dose",54.0,68.0,"65-80",2.0,"WHITE",1.0,"M","Y","Y","Y","Week 16",16.0,"WEEK 16",10.0,113.0,"2014-04-23","Spoken Language Ability","ACITM11",11.0,3.0,3.0,0.0,0.0,null,"Y",null,"85-140",112.0,1.0,85.0,140.0,"DAYS",5041.0],["CDISCPILOT01","701","701","01-701-1097","2014-01-01","2014-07-09","Xanomeline Low Dose",54.0,68.0,"65-80",2.0,"WHITE",1.0,"M","Y","Y","Y","Week 24",24.0,"WEEK 24",12.0,169.0,"2014-06-18","Spoken Language Ability","ACITM11",11.0,2.0,3.0,-1.0,-33.33333333333333,null,"Y",null,">140",168.0,1.0,141.0,null,"DAYS",5056.0],["CDISCPILOT01","701","701","01-701-1097","2014-01-01","2014-07-09","Xanomeline Low Dose",54.0,68.0,"65-80",2.0,"WHITE",1.0,"M","Y","Y","Y","Week 8",8.0,"WEEK 8",8.0,57.0,"2014-02-26","Comprehension Of Spoken Language","ACITM12",12.0,2.0,3.0,-1.0,-33.33333333333333,null,"Y",null,"2-84",56.0,1.0,2.0,84.0,"DAYS",5027.0],["CDISCPILOT01","701","701","01-701-1097","2014-01-01","2014-07-09","Xanomeline Low Dose",54.0,68.0,"65-80",2.0,"WHITE",1.0,"M","Y","Y","Y","Week 16",16.0,"WEEK 16",10.0,113.0,"2014-04-23","Comprehension Of Spoken Language","ACITM12",12.0,2.0,3.0,-1.0,-33.33333333333333,null,"Y",null,"85-140",112.0,1.0,85.0,140.0,"DAYS",5042.0],["CDISCPILOT01","701","701","01-701-1097","2014-01-01","2014-07-09","Xanomeline Low Dose",54.0,68.0,"65-80",2.0,"WHITE",1.0,"M","Y","Y","Y","Week 24",24.0,"WEEK 24",12.0,169.0,"2014-06-18","Comprehension Of Spoken Language","ACITM12",12.0,3.0,3.0,0.0,0.0,null,"Y",null,">140",168.0,1.0,141.0,null,"DAYS",5057.0],["CDISCPILOT01","701","701","01-701-1097","2014-01-01","2014-07-09","Xanomeline Low Dose",54.0,68.0,"65-80",2.0,"WHITE",1.0,"M","Y","Y","Y","Week 8",8.0,"WEEK 8",8.0,57.0,"2014-02-26","Word Finding Difficulty In Spontaneous S","ACITM13",13.0,4.0,4.0,0.0,0.0,null,"Y",null,"2-84",56.0,1.0,2.0,84.0,"DAYS",5028.0],["CDISCPILOT01","701","701","01-701-1097","2014-01-01","2014-07-09","Xanomeline Low Dose",54.0,68.0,"65-80",2.0,"WHITE",1.0,"M","Y","Y","Y","Week 16",16.0,"WEEK 16",10.0,113.0,"2014-04-23","Word Finding Difficulty In Spontaneous S","ACITM13",13.0,2.0,4.0,-2.0,-50.0,null,"Y",null,"85-140",112.0,1.0,85.0,140.0,"DAYS",5043.0],["CDISCPILOT01","701","701","01-701-1097","2014-01-01","2014-07-09","Xanomeline Low Dose",54.0,68.0,"65-80",2.0,"WHITE",1.0,"M","Y","Y","Y","Week 24",24.0,"WEEK 24",12.0,169.0,"2014-06-18","Word Finding Difficulty In Spontaneous S","ACITM13",13.0,2.0,4.0,-2.0,-50.0,null,"Y",null,">140",168.0,1.0,141.0,null,"DAYS",5058.0],["CDISCPILOT01","701","701","01-701-1097","2014-01-01","2014-07-09","Xanomeline Low Dose",54.0,68.0,"65-80",2.0,"WHITE",1.0,"M","Y","Y","Y","Week 8",8.0,"WEEK 8",8.0,57.0,"2014-02-26","Recall Of Test Instructions","ACITM14",14.0,4.0,3.0,1.0,33.33333333333333,null,"Y",null,"2-84",56.0,1.0,2.0,84.0,"DAYS",5029.0],["CDISCPILOT01","701","701","01-701-1097","2014-01-01","2014-07-09","Xanomeline Low Dose",54.0,68.0,"65-80",2.0,"WHITE",1.0,"M","Y","Y","Y","Week 16",16.0,"WEEK 16",10.0,113.0,"2014-04-23","Recall Of Test Instructions","ACITM14",14.0,2.0,3.0,-1.0,-33.33333333333333,null,"Y",null,"85-140",112.0,1.0,85.0,140.0,"DAYS",5044.0],["CDISCPILOT01","701","701","01-701-1097","2014-01-01","2014-07-09","Xanomeline Low Dose",54.0,68.0,"65-80",2.0,"WHITE",1.0,"M","Y","Y","Y","Week 24",24.0,"WEEK 24",12.0,169.0,"2014-06-18","Recall Of Test Instructions","ACITM14",14.0,4.0,3.0,1.0,33.33333333333333,null,"Y",null,">140",168.0,1.0,141.0,null,"DAYS",5059.0],["CDISCPILOT01","701","701","01-701-1097","2014-01-01","2014-07-09","Xanomeline Low Dose",54.0,68.0,"65-80",2.0,"WHITE",1.0,"M","Y","Y","Y","Week 8",8.0,"WEEK 8",8.0,57.0,"2014-02-26","Adas-Cog(11) Subscore","ACTOT",15.0,54.0,56.724137931034484,-2.724137931034484,-4.802431610942251,null,"Y",null,"2-84",56.0,1.0,2.0,84.0,"DAYS",5030.0],["CDISCPILOT01","701","701","01-701-1097","2014-01-01","2014-07-09","Xanomeline Low Dose",54.0,68.0,"65-80",2.0,"WHITE",1.0,"M","Y","Y","Y","Week 16",16.0,"WEEK 16",10.0,113.0,"2014-04-23","Adas-Cog(11) Subscore","ACTOT",15.0,49.0,56.724137931034484,-7.724137931034484,-13.617021276595748,null,"Y",null,"85-140",112.0,1.0,85.0,140.0,"DAYS",5045.0],["CDISCPILOT01","701","701","01-701-1097","2014-01-01","2014-07-09","Xanomeline Low Dose",54.0,68.0,"65-80",2.0,"WHITE",1.0,"M","Y","Y","Y","Week 24",24.0,"WEEK 24",12.0,169.0,"2014-06-18","Adas-Cog(11) Subscore","ACTOT",15.0,51.0,56.724137931034484,-5.724137931034484,-10.091185410334349,null,"Y",null,">140",168.0,1.0,141.0,null,"DAYS",5060.0],["CDISCPILOT01","701","701","01-701-1111","2012-09-07","2012-09-16","Xanomeline Low Dose",54.0,81.0,">80",3.0,"WHITE",1.0,"F","Y","Y","N","Week 8",8.0,"WEEK 2",4.0,11.0,"2012-09-17","Word Recall Task","ACITM01",1.0,4.0,5.0,-1.0,-20.0,null,"Y",null,"2-84",56.0,45.0,2.0,84.0,"DAYS",5016.0],["CDISCPILOT01","701","701","01-701-1111","2012-09-07","2012-09-16","Xanomeline Low Dose",54.0,81.0,">80",3.0,"WHITE",1.0,"F","Y","Y","N","Week 24",24.0,"RETRIEVAL",201.0,169.0,"2013-02-22","Word Recall Task","ACITM01",1.0,5.0,5.0,0.0,0.0,null,"Y",null,">140",168.0,1.0,141.0,null,"DAYS",5031.0],["CDISCPILOT01","701","701","01-701-1111","2012-09-07","2012-09-16","Xanomeline Low Dose",54.0,81.0,">80",3.0,"WHITE",1.0,"F","Y","Y","N","Week 8",8.0,"WEEK 2",4.0,11.0,"2012-09-17","Naming Objects And Fingers (Refer To 5 C","ACITM02",2.0,0.0,0.0,0.0,null,null,"Y",null,"2-84",56.0,45.0,2.0,84.0,"DAYS",5017.0],["CDISCPILOT01","701","701","01-701-1111","2012-09-07","2012-09-16","Xanomeline Low Dose",54.0,81.0,">80",3.0,"WHITE",1.0,"F","Y","Y","N","Week 24",24.0,"RETRIEVAL",201.0,169.0,"2013-02-22","Naming Objects And Fingers (Refer To 5 C","ACITM02",2.0,0.0,0.0,0.0,null,null,"Y",null,">140",168.0,1.0,141.0,null,"DAYS",5032.0],["CDISCPILOT01","701","701","01-701-1111","2012-09-07","2012-09-16","Xanomeline Low Dose",54.0,81.0,">80",3.0,"WHITE",1.0,"F","Y","Y","N","Week 8",8.0,"WEEK 2",4.0,11.0,"2012-09-17","Delayed Word Recall","ACITM03",3.0,4.0,6.0,-2.0,-33.33333333333333,null,"Y",null,"2-84",56.0,45.0,2.0,84.0,"DAYS",5018.0],["CDISCPILOT01","701","701","01-701-1111","2012-09-07","2012-09-16","Xanomeline Low Dose",54.0,81.0,">80",3.0,"WHITE",1.0,"F","Y","Y","N","Week 24",24.0,"RETRIEVAL",201.0,169.0,"2013-02-22","Delayed Word Recall","ACITM03",3.0,5.0,6.0,-1.0,-16.666666666666664,null,"Y",null,">140",168.0,1.0,141.0,null,"DAYS",5033.0],["CDISCPILOT01","701","701","01-701-1111","2012-09-07","2012-09-16","Xanomeline Low Dose",54.0,81.0,">80",3.0,"WHITE",1.0,"F","Y","Y","N","Week 8",8.0,"WEEK 2",4.0,11.0,"2012-09-17","Commands","ACITM04",4.0,0.0,0.0,0.0,null,null,"Y",null,"2-84",56.0,45.0,2.0,84.0,"DAYS",5019.0],["CDISCPILOT01","701","701","01-701-1111","2012-09-07","2012-09-16","Xanomeline Low Dose",54.0,81.0,">80",3.0,"WHITE",1.0,"F","Y","Y","N","Week 24",24.0,"RETRIEVAL",201.0,169.0,"2013-02-22","Commands","ACITM04",4.0,0.0,0.0,0.0,null,null,"Y",null,">140",168.0,1.0,141.0,null,"DAYS",5034.0],["CDISCPILOT01","701","701","01-701-1111","2012-09-07","2012-09-16","Xanomeline Low Dose",54.0,81.0,">80",3.0,"WHITE",1.0,"F","Y","Y","N","Week 8",8.0,"WEEK 2",4.0,11.0,"2012-09-17","Constructional Praxis","ACITM05",5.0,0.0,0.0,0.0,null,null,"Y",null,"2-84",56.0,45.0,2.0,84.0,"DAYS",5020.0],["CDISCPILOT01","701","701","01-701-1111","2012-09-07","2012-09-16","Xanomeline Low Dose",54.0,81.0,">80",3.0,"WHITE",1.0,"F","Y","Y","N","Week 24",24.0,"RETRIEVAL",201.0,169.0,"2013-02-22","Constructional Praxis","ACITM05",5.0,0.0,0.0,0.0,null,null,"Y",null,">140",168.0,1.0,141.0,null,"DAYS",5035.0],["CDISCPILOT01","701","701","01-701-1111","2012-09-07","2012-09-16","Xanomeline Low Dose",54.0,81.0,">80",3.0,"WHITE",1.0,"F","Y","Y","N","Week 8",8.0,"WEEK 2",4.0,11.0,"2012-09-17","Ideational Praxis","ACITM06",6.0,0.0,1.0,-1.0,-100.0,null,"Y",null,"2-84",56.0,45.0,2.0,84.0,"DAYS",5021.0],["CDISCPILOT01","701","701","01-701-1111","2012-09-07","2012-09-16","Xanomeline Low Dose",54.0,81.0,">80",3.0,"WHITE",1.0,"F","Y","Y","N","Week 24",24.0,"RETRIEVAL",201.0,169.0,"2013-02-22","Ideational Praxis","ACITM06",6.0,0.0,1.0,-1.0,-100.0,null,"Y",null,">140",168.0,1.0,141.0,null,"DAYS",5036.0],["CDISCPILOT01","701","701","01-701-1111","2012-09-07","2012-09-16","Xanomeline Low Dose",54.0,81.0,">80",3.0,"WHITE",1.0,"F","Y","Y","N","Week 8",8.0,"WEEK 2",4.0,11.0,"2012-09-17","Orientation","ACITM07",7.0,0.0,0.0,0.0,null,null,"Y",null,"2-84",56.0,45.0,2.0,84.0,"DAYS",5022.0],["CDISCPILOT01","701","701","01-701-1111","2012-09-07","2012-09-16","Xanomeline Low Dose",54.0,81.0,">80",3.0,"WHITE",1.0,"F","Y","Y","N","Week 24",24.0,"RETRIEVAL",201.0,169.0,"2013-02-22","Orientation","ACITM07",7.0,1.0,0.0,1.0,null,null,"Y",null,">140",168.0,1.0,141.0,null,"DAYS",5037.0],["CDISCPILOT01","701","701","01-701-1111","2012-09-07","2012-09-16","Xanomeline Low Dose",54.0,81.0,">80",3.0,"WHITE",1.0,"F","Y","Y","N","Week 8",8.0,"WEEK 2",4.0,11.0,"2012-09-17","Word Recognition","ACITM08",8.0,1.0,1.0,0.0,0.0,null,"Y",null,"2-84",56.0,45.0,2.0,84.0,"DAYS",5023.0],["CDISCPILOT01","701","701","01-701-1111","2012-09-07","2012-09-16","Xanomeline Low Dose",54.0,81.0,">80",3.0,"WHITE",1.0,"F","Y","Y","N","Week 24",24.0,"RETRIEVAL",201.0,169.0,"2013-02-22","Word Recognition","ACITM08",8.0,3.0,1.0,2.0,200.0,null,"Y",null,">140",168.0,1.0,141.0,null,"DAYS",5038.0],["CDISCPILOT01","701","701","01-701-1111","2012-09-07","2012-09-16","Xanomeline Low Dose",54.0,81.0,">80",3.0,"WHITE",1.0,"F","Y","Y","N","Week 8",8.0,"WEEK 2",4.0,11.0,"2012-09-17","Attention/Visual Search Task","ACITM09",9.0,24.0,31.0,-7.0,-22.58064516129032,null,"Y",null,"2-84",56.0,45.0,2.0,84.0,"DAYS",5024.0],["CDISCPILOT01","701","701","01-701-1111","2012-09-07","2012-09-16","Xanomeline Low Dose",54.0,81.0,">80",3.0,"WHITE",1.0,"F","Y","Y","N","Week 24",24.0,"RETRIEVAL",201.0,169.0,"2013-02-22","Attention/Visual Search Task","ACITM09",9.0,31.0,31.0,0.0,0.0,null,"Y",null,">140",168.0,1.0,141.0,null,"DAYS",5039.0],["CDISCPILOT01","701","701","01-701-1111","2012-09-07","2012-09-16","Xanomeline Low Dose",54.0,81.0,">80",3.0,"WHITE",1.0,"F","Y","Y","N","Week 8",8.0,"WEEK 2",4.0,11.0,"2012-09-17","Maze Solution","ACITM10",10.0,7.0,3.0,4.0,133.33333333333331,null,"Y",null,"2-84",56.0,45.0,2.0,84.0,"DAYS",5025.0],["CDISCPILOT01","701","701","01-701-1111","2012-09-07","2012-09-16","Xanomeline Low Dose",54.0,81.0,">80",3.0,"WHITE",1.0,"F","Y","Y","N","Week 24",24.0,"RETRIEVAL",201.0,169.0,"2013-02-22","Maze Solution","ACITM10",10.0,7.0,3.0,4.0,133.33333333333331,null,"Y",null,">140",168.0,1.0,141.0,null,"DAYS",5040.0],["CDISCPILOT01","701","701","01-701-1111","2012-09-07","2012-09-16","Xanomeline Low Dose",54.0,81.0,">80",3.0,"WHITE",1.0,"F","Y","Y","N","Week 8",8.0,"WEEK 2",4.0,11.0,"2012-09-17","Spoken Language Ability","ACITM11",11.0,0.0,0.0,0.0,null,null,"Y",null,"2-84",56.0,45.0,2.0,84.0,"DAYS",5026.0],["CDISCPILOT01","701","701","01-701-1111","2012-09-07","2012-09-16","Xanomeline Low Dose",54.0,81.0,">80",3.0,"WHITE",1.0,"F","Y","Y","N","Week 24",24.0,"RETRIEVAL",201.0,169.0,"2013-02-22","Spoken Language Ability","ACITM11",11.0,0.0,0.0,0.0,null,null,"Y",null,">140",168.0,1.0,141.0,null,"DAYS",5041.0],["CDISCPILOT01","701","701","01-701-1111","2012-09-07","2012-09-16","Xanomeline Low Dose",54.0,81.0,">80",3.0,"WHITE",1.0,"F","Y","Y","N","Week 8",8.0,"WEEK 2",4.0,11.0,"2012-09-17","Comprehension Of Spoken Language","ACITM12",12.0,0.0,0.0,0.0,null,null,"Y",null,"2-84",56.0,45.0,2.0,84.0,"DAYS",5027.0],["CDISCPILOT01","701","701","01-701-1111","2012-09-07","2012-09-16","Xanomeline Low Dose",54.0,81.0,">80",3.0,"WHITE",1.0,"F","Y","Y","N","Week 24",24.0,"RETRIEVAL",201.0,169.0,"2013-02-22","Comprehension Of Spoken Language","ACITM12",12.0,0.0,0.0,0.0,null,null,"Y",null,">140",168.0,1.0,141.0,null,"DAYS",5042.0],["CDISCPILOT01","701","701","01-701-1111","2012-09-07","2012-09-16","Xanomeline Low Dose",54.0,81.0,">80",3.0,"WHITE",1.0,"F","Y","Y","N","Week 8",8.0,"WEEK 2",4.0,11.0,"2012-09-17","Word Finding Difficulty In Spontaneous S","ACITM13",13.0,0.0,0.0,0.0,null,null,"Y",null,"2-84",56.0,45.0,2.0,84.0,"DAYS",5028.0],["CDISCPILOT01","701","701","01-701-1111","2012-09-07","2012-09-16","Xanomeline Low Dose",54.0,81.0,">80",3.0,"WHITE",1.0,"F","Y","Y","N","Week 24",24.0,"RETRIEVAL",201.0,169.0,"2013-02-22","Word Finding Difficulty In Spontaneous S","ACITM13",13.0,0.0,0.0,0.0,null,null,"Y",null,">140",168.0,1.0,141.0,null,"DAYS",5043.0],["CDISCPILOT01","701","701","01-701-1111","2012-09-07","2012-09-16","Xanomeline Low Dose",54.0,81.0,">80",3.0,"WHITE",1.0,"F","Y","Y","N","Week 8",8.0,"WEEK 2",4.0,11.0,"2012-09-17","Recall Of Test Instructions","ACITM14",14.0,0.0,0.0,0.0,null,null,"Y",null,"2-84",56.0,45.0,2.0,84.0,"DAYS",5029.0],["CDISCPILOT01","701","701","01-701-1111","2012-09-07","2012-09-16","Xanomeline Low Dose",54.0,81.0,">80",3.0,"WHITE",1.0,"F","Y","Y","N","Week 24",24.0,"RETRIEVAL",201.0,169.0,"2013-02-22","Recall Of Test Instructions","ACITM14",14.0,0.0,0.0,0.0,null,null,"Y",null,">140",168.0,1.0,141.0,null,"DAYS",5044.0],["CDISCPILOT01","701","701","01-701-1111","2012-09-07","2012-09-16","Xanomeline Low Dose",54.0,81.0,">80",3.0,"WHITE",1.0,"F","Y","Y","N","Week 8",8.0,"WEEK 2",4.0,11.0,"2012-09-17","Adas-Cog(11) Subscore","ACTOT",15.0,5.0,7.0,-2.0,-28.57142857142857,null,"Y",null,"2-84",56.0,45.0,2.0,84.0,"DAYS",5030.0],["CDISCPILOT01","701","701","01-701-1111","2012-09-07","2012-09-16","Xanomeline Low Dose",54.0,81.0,">80",3.0,"WHITE",1.0,"F","Y","Y","N","Week 16",16.0,"WEEK 2",4.0,11.0,"2012-09-17","Adas-Cog(11) Subscore","ACTOT",15.0,5.0,7.0,-2.0,-28.57142857142857,null,"Y","LOCF","85-140",112.0,101.0,85.0,140.0,"DAYS",5030.0],["CDISCPILOT01","701","701","01-701-1111","2012-09-07","2012-09-16","Xanomeline Low Dose",54.0,81.0,">80",3.0,"WHITE",1.0,"F","Y","Y","N","Week 24",24.0,"RETRIEVAL",201.0,169.0,"2013-02-22","Adas-Cog(11) Subscore","ACTOT",15.0,9.0,7.0,2.0,28.57142857142857,null,"Y",null,">140",168.0,1.0,141.0,null,"DAYS",5045.0],["CDISCPILOT01","701","701","01-701-1115","2012-11-30","2013-01-23","Xanomeline Low Dose",54.0,84.0,">80",3.0,"WHITE",1.0,"M","Y","Y","N","Week 8",8.0,"WEEK 8",8.0,55.0,"2013-01-23","Word Recall Task","ACITM01",1.0,6.0,6.0,0.0,0.0,null,"Y",null,"2-84",56.0,1.0,2.0,84.0,"DAYS",5016.0],["CDISCPILOT01","701","701","01-701-1115","2012-11-30","2013-01-23","Xanomeline Low Dose",54.0,84.0,">80",3.0,"WHITE",1.0,"M","Y","Y","N","Week 24",24.0,"RETRIEVAL",201.0,172.0,"2013-05-20","Word Recall Task","ACITM01",1.0,6.0,6.0,0.0,0.0,null,"Y",null,">140",168.0,4.0,141.0,null,"DAYS",5031.0],["CDISCPILOT01","701","701","01-701-1115","2012-11-30","2013-01-23","Xanomeline Low Dose",54.0,84.0,">80",3.0,"WHITE",1.0,"M","Y","Y","N","Week 8",8.0,"WEEK 8",8.0,55.0,"2013-01-23","Naming Objects And Fingers (Refer To 5 C","ACITM02",2.0,1.0,0.0,1.0,null,null,"Y",null,"2-84",56.0,1.0,2.0,84.0,"DAYS",5017.0],["CDISCPILOT01","701","701","01-701-1115","2012-11-30","2013-01-23","Xanomeline Low Dose",54.0,84.0,">80",3.0,"WHITE",1.0,"M","Y","Y","N","Week 24",24.0,"RETRIEVAL",201.0,172.0,"2013-05-20","Naming Objects And Fingers (Refer To 5 C","ACITM02",2.0,0.0,0.0,0.0,null,null,"Y",null,">140",168.0,4.0,141.0,null,"DAYS",5032.0],["CDISCPILOT01","701","701","01-701-1115","2012-11-30","2013-01-23","Xanomeline Low Dose",54.0,84.0,">80",3.0,"WHITE",1.0,"M","Y","Y","N","Week 8",8.0,"WEEK 8",8.0,55.0,"2013-01-23","Delayed Word Recall","ACITM03",3.0,6.0,6.0,0.0,0.0,null,"Y",null,"2-84",56.0,1.0,2.0,84.0,"DAYS",5018.0],["CDISCPILOT01","701","701","01-701-1115","2012-11-30","2013-01-23","Xanomeline Low Dose",54.0,84.0,">80",3.0,"WHITE",1.0,"M","Y","Y","N","Week 24",24.0,"RETRIEVAL",201.0,172.0,"2013-05-20","Delayed Word Recall","ACITM03",3.0,7.0,6.0,1.0,16.666666666666664,null,"Y",null,">140",168.0,4.0,141.0,null,"DAYS",5033.0],["CDISCPILOT01","701","701","01-701-1115","2012-11-30","2013-01-23","Xanomeline Low Dose",54.0,84.0,">80",3.0,"WHITE",1.0,"M","Y","Y","N","Week 8",8.0,"WEEK 8",8.0,55.0,"2013-01-23","Commands","ACITM04",4.0,0.0,0.0,0.0,null,null,"Y",null,"2-84",56.0,1.0,2.0,84.0,"DAYS",5019.0],["CDISCPILOT01","701","701","01-701-1115","2012-11-30","2013-01-23","Xanomeline Low Dose",54.0,84.0,">80",3.0,"WHITE",1.0,"M","Y","Y","N","Week 24",24.0,"RETRIEVAL",201.0,172.0,"2013-05-20","Commands","ACITM04",4.0,0.0,0.0,0.0,null,null,"Y",null,">140",168.0,4.0,141.0,null,"DAYS",5034.0],["CDISCPILOT01","701","701","01-701-1115","2012-11-30","2013-01-23","Xanomeline Low Dose",54.0,84.0,">80",3.0,"WHITE",1.0,"M","Y","Y","N","Week 8",8.0,"WEEK 8",8.0,55.0,"2013-01-23","Constructional Praxis","ACITM05",5.0,1.0,1.0,0.0,0.0,null,"Y",null,"2-84",56.0,1.0,2.0,84.0,"DAYS",5020.0],["CDISCPILOT01","701","701","01-701-1115","2012-11-30","2013-01-23","Xanomeline Low Dose",54.0,84.0,">80",3.0,"WHITE",1.0,"M","Y","Y","N","Week 24",24.0,"RETRIEVAL",201.0,172.0,"2013-05-20","Constructional Praxis","ACITM05",5.0,1.0,1.0,0.0,0.0,null,"Y",null,">140",168.0,4.0,141.0,null,"DAYS",5035.0],["CDISCPILOT01","701","701","01-701-1115","2012-11-30","2013-01-23","Xanomeline Low Dose",54.0,84.0,">80",3.0,"WHITE",1.0,"M","Y","Y","N","Week 8",8.0,"WEEK 8",8.0,55.0,"2013-01-23","Ideational Praxis","ACITM06",6.0,0.0,1.0,-1.0,-100.0,null,"Y",null,"2-84",56.0,1.0,2.0,84.0,"DAYS",5021.0],["CDISCPILOT01","701","701","01-701-1115","2012-11-30","2013-01-23","Xanomeline Low Dose",54.0,84.0,">80",3.0,"WHITE",1.0,"M","Y","Y","N","Week 24",24.0,"RETRIEVAL",201.0,172.0,"2013-05-20","Ideational Praxis","ACITM06",6.0,0.0,1.0,-1.0,-100.0,null,"Y",null,">140",168.0,4.0,141.0,null,"DAYS",5036.0],["CDISCPILOT01","701","701","01-701-1115","2012-11-30","2013-01-23","Xanomeline Low Dose",54.0,84.0,">80",3.0,"WHITE",1.0,"M","Y","Y","N","Week 8",8.0,"WEEK 8",8.0,55.0,"2013-01-23","Orientation","ACITM07",7.0,1.0,1.0,0.0,0.0,null,"Y",null,"2-84",56.0,1.0,2.0,84.0,"DAYS",5022.0],["CDISCPILOT01","701","701","01-701-1115","2012-11-30","2013-01-23","Xanomeline Low Dose",54.0,84.0,">80",3.0,"WHITE",1.0,"M","Y","Y","N","Week 24",24.0,"RETRIEVAL",201.0,172.0,"2013-05-20","Orientation","ACITM07",7.0,2.0,1.0,1.0,100.0,null,"Y",null,">140",168.0,4.0,141.0,null,"DAYS",5037.0],["CDISCPILOT01","701","701","01-701-1115","2012-11-30","2013-01-23","Xanomeline Low Dose",54.0,84.0,">80",3.0,"WHITE",1.0,"M","Y","Y","N","Week 8",8.0,"WEEK 8",8.0,55.0,"2013-01-23","Word Recognition","ACITM08",8.0,5.0,1.0,4.0,400.0,null,"Y",null,"2-84",56.0,1.0,2.0,84.0,"DAYS",5023.0],["CDISCPILOT01","701","701","01-701-1115","2012-11-30","2013-01-23","Xanomeline Low Dose",54.0,84.0,">80",3.0,"WHITE",1.0,"M","Y","Y","N","Week 24",24.0,"RETRIEVAL",201.0,172.0,"2013-05-20","Word Recognition","ACITM08",8.0,1.0,1.0,0.0,0.0,null,"Y",null,">140",168.0,4.0,141.0,null,"DAYS",5038.0],["CDISCPILOT01","701","701","01-701-1115","2012-11-30","2013-01-23","Xanomeline Low Dose",54.0,84.0,">80",3.0,"WHITE",1.0,"M","Y","Y","N","Week 8",8.0,"WEEK 8",8.0,55.0,"2013-01-23","Attention/Visual Search Task","ACITM09",9.0,23.0,26.0,-3.0,-11.538461538461538,null,"Y",null,"2-84",56.0,1.0,2.0,84.0,"DAYS",5024.0],["CDISCPILOT01","701","701","01-701-1115","2012-11-30","2013-01-23","Xanomeline Low Dose",54.0,84.0,">80",3.0,"WHITE",1.0,"M","Y","Y","N","Week 24",24.0,"RETRIEVAL",201.0,172.0,"2013-05-20","Attention/Visual Search Task","ACITM09",9.0,24.0,26.0,-2.0,-7.6923076923076925,null,"Y",null,">140",168.0,4.0,141.0,null,"DAYS",5039.0],["CDISCPILOT01","701","701","01-701-1115","2012-11-30","2013-01-23","Xanomeline Low Dose",54.0,84.0,">80",3.0,"WHITE",1.0,"M","Y","Y","N","Week 8",8.0,"WEEK 8",8.0,55.0,"2013-01-23","Maze Solution","ACITM10",10.0,6.0,3.0,3.0,100.0,null,"Y",null,"2-84",56.0,1.0,2.0,84.0,"DAYS",5025.0],["CDISCPILOT01","701","701","01-701-1115","2012-11-30","2013-01-23","Xanomeline Low Dose",54.0,84.0,">80",3.0,"WHITE",1.0,"M","Y","Y","N","Week 24",24.0,"RETRIEVAL",201.0,172.0,"2013-05-20","Maze Solution","ACITM10",10.0,7.0,3.0,4.0,133.33333333333331,null,"Y",null,">140",168.0,4.0,141.0,null,"DAYS",5040.0],["CDISCPILOT01","701","701","01-701-1115","2012-11-30","2013-01-23","Xanomeline Low Dose",54.0,84.0,">80",3.0,"WHITE",1.0,"M","Y","Y","N","Week 8",8.0,"WEEK 8",8.0,55.0,"2013-01-23","Spoken Language Ability","ACITM11",11.0,0.0,0.0,0.0,null,null,"Y",null,"2-84",56.0,1.0,2.0,84.0,"DAYS",5026.0],["CDISCPILOT01","701","701","01-701-1115","2012-11-30","2013-01-23","Xanomeline Low Dose",54.0,84.0,">80",3.0,"WHITE",1.0,"M","Y","Y","N","Week 24",24.0,"RETRIEVAL",201.0,172.0,"2013-05-20","Spoken Language Ability","ACITM11",11.0,0.0,0.0,0.0,null,null,"Y",null,">140",168.0,4.0,141.0,null,"DAYS",5041.0],["CDISCPILOT01","701","701","01-701-1115","2012-11-30","2013-01-23","Xanomeline Low Dose",54.0,84.0,">80",3.0,"WHITE",1.0,"M","Y","Y","N","Week 8",8.0,"WEEK 8",8.0,55.0,"2013-01-23","Comprehension Of Spoken Language","ACITM12",12.0,0.0,0.0,0.0,null,null,"Y",null,"2-84",56.0,1.0,2.0,84.0,"DAYS",5027.0],["CDISCPILOT01","701","701","01-701-1115","2012-11-30","2013-01-23","Xanomeline Low Dose",54.0,84.0,">80",3.0,"WHITE",1.0,"M","Y","Y","N","Week 24",24.0,"RETRIEVAL",201.0,172.0,"2013-05-20","Comprehension Of Spoken Language","ACITM12",12.0,0.0,0.0,0.0,null,null,"Y",null,">140",168.0,4.0,141.0,null,"DAYS",5042.0],["CDISCPILOT01","701","701","01-701-1115","2012-11-30","2013-01-23","Xanomeline Low Dose",54.0,84.0,">80",3.0,"WHITE",1.0,"M","Y","Y","N","Week 8",8.0,"WEEK 8",8.0,55.0,"2013-01-23","Word Finding Difficulty In Spontaneous S","ACITM13",13.0,0.0,0.0,0.0,null,null,"Y",null,"2-84",56.0,1.0,2.0,84.0,"DAYS",5028.0],["CDISCPILOT01","701","701","01-701-1115","2012-11-30","2013-01-23","Xanomeline Low Dose",54.0,84.0,">80",3.0,"WHITE",1.0,"M","Y","Y","N","Week 24",24.0,"RETRIEVAL",201.0,172.0,"2013-05-20","Word Finding Difficulty In Spontaneous S","ACITM13",13.0,0.0,0.0,0.0,null,null,"Y",null,">140",168.0,4.0,141.0,null,"DAYS",5043.0],["CDISCPILOT01","701","701","01-701-1115","2012-11-30","2013-01-23","Xanomeline Low Dose",54.0,84.0,">80",3.0,"WHITE",1.0,"M","Y","Y","N","Week 8",8.0,"WEEK 8",8.0,55.0,"2013-01-23","Recall Of Test Instructions","ACITM14",14.0,0.0,0.0,0.0,null,null,"Y",null,"2-84",56.0,1.0,2.0,84.0,"DAYS",5029.0],["CDISCPILOT01","701","701","01-701-1115","2012-11-30","2013-01-23","Xanomeline Low Dose",54.0,84.0,">80",3.0,"WHITE",1.0,"M","Y","Y","N","Week 24",24.0,"RETRIEVAL",201.0,172.0,"2013-05-20","Recall Of Test Instructions","ACITM14",14.0,0.0,0.0,0.0,null,null,"Y",null,">140",168.0,4.0,141.0,null,"DAYS",5044.0],["CDISCPILOT01","701","701","01-701-1115","2012-11-30","2013-01-23","Xanomeline Low Dose",54.0,84.0,">80",3.0,"WHITE",1.0,"M","Y","Y","N","Week 8",8.0,"WEEK 8",8.0,55.0,"2013-01-23","Adas-Cog(11) Subscore","ACTOT",15.0,14.0,10.0,4.0,40.0,null,"Y",null,"2-84",56.0,1.0,2.0,84.0,"DAYS",5030.0],["CDISCPILOT01","701","701","01-701-1115","2012-11-30","2013-01-23","Xanomeline Low Dose",54.0,84.0,">80",3.0,"WHITE",1.0,"M","Y","Y","N","Week 16",16.0,"WEEK 8",8.0,55.0,"2013-01-23","Adas-Cog(11) Subscore","ACTOT",15.0,14.0,10.0,4.0,40.0,null,"Y","LOCF","85-140",112.0,57.0,85.0,140.0,"DAYS",5030.0],["CDISCPILOT01","701","701","01-701-1115","2012-11-30","2013-01-23","Xanomeline Low Dose",54.0,84.0,">80",3.0,"WHITE",1.0,"M","Y","Y","N","Week 24",24.0,"RETRIEVAL",201.0,172.0,"2013-05-20","Adas-Cog(11) Subscore","ACTOT",15.0,10.0,10.0,0.0,0.0,null,"Y",null,">140",168.0,4.0,141.0,null,"DAYS",5045.0],["CDISCPILOT01","701","701","01-701-1118","2014-03-12","2014-09-09","Placebo",0.0,52.0,"<65",1.0,"WHITE",1.0,"M","Y","Y","Y","Week 8",8.0,"WEEK 8",8.0,58.0,"2014-05-08","Word Recall Task","ACITM01",1.0,5.0,5.0,0.0,0.0,null,"Y",null,"2-84",56.0,2.0,2.0,84.0,"DAYS",5016.0],["CDISCPILOT01","701","701","01-701-1118","2014-03-12","2014-09-09","Placebo",0.0,52.0,"<65",1.0,"WHITE",1.0,"M","Y","Y","Y","Week 16",16.0,"WEEK 16",10.0,113.0,"2014-07-02","Word Recall Task","ACITM01",1.0,4.0,5.0,-1.0,-20.0,null,"Y",null,"85-140",112.0,1.0,85.0,140.0,"DAYS",5031.0],["CDISCPILOT01","701","701","01-701-1118","2014-03-12","2014-09-09","Placebo",0.0,52.0,"<65",1.0,"WHITE",1.0,"M","Y","Y","Y","Week 24",24.0,"WEEK 24",12.0,169.0,"2014-08-27","Word Recall Task","ACITM01",1.0,5.0,5.0,0.0,0.0,null,"Y",null,">140",168.0,1.0,141.0,null,"DAYS",5046.0],["CDISCPILOT01","701","701","01-701-1118","2014-03-12","2014-09-09","Placebo",0.0,52.0,"<65",1.0,"WHITE",1.0,"M","Y","Y","Y","Week 8",8.0,"WEEK 8",8.0,58.0,"2014-05-08","Naming Objects And Fingers (Refer To 5 C","ACITM02",2.0,0.0,1.0,-1.0,-100.0,null,"Y",null,"2-84",56.0,2.0,2.0,84.0,"DAYS",5017.0],["CDISCPILOT01","701","701","01-701-1118","2014-03-12","2014-09-09","Placebo",0.0,52.0,"<65",1.0,"WHITE",1.0,"M","Y","Y","Y","Week 16",16.0,"WEEK 16",10.0,113.0,"2014-07-02","Naming Objects And Fingers (Refer To 5 C","ACITM02",2.0,0.0,1.0,-1.0,-100.0,null,"Y",null,"85-140",112.0,1.0,85.0,140.0,"DAYS",5032.0],["CDISCPILOT01","701","701","01-701-1118","2014-03-12","2014-09-09","Placebo",0.0,52.0,"<65",1.0,"WHITE",1.0,"M","Y","Y","Y","Week 24",24.0,"WEEK 24",12.0,169.0,"2014-08-27","Naming Objects And Fingers (Refer To 5 C","ACITM02",2.0,0.0,1.0,-1.0,-100.0,null,"Y",null,">140",168.0,1.0,141.0,null,"DAYS",5047.0],["CDISCPILOT01","701","701","01-701-1118","2014-03-12","2014-09-09","Placebo",0.0,52.0,"<65",1.0,"WHITE",1.0,"M","Y","Y","Y","Week 8",8.0,"WEEK 8",8.0,58.0,"2014-05-08","Delayed Word Recall","ACITM03",3.0,7.0,10.0,-3.0,-30.0,null,"Y",null,"2-84",56.0,2.0,2.0,84.0,"DAYS",5018.0],["CDISCPILOT01","701","701","01-701-1118","2014-03-12","2014-09-09","Placebo",0.0,52.0,"<65",1.0,"WHITE",1.0,"M","Y","Y","Y","Week 16",16.0,"WEEK 16",10.0,113.0,"2014-07-02","Delayed Word Recall","ACITM03",3.0,6.0,10.0,-4.0,-40.0,null,"Y",null,"85-140",112.0,1.0,85.0,140.0,"DAYS",5033.0],["CDISCPILOT01","701","701","01-701-1118","2014-03-12","2014-09-09","Placebo",0.0,52.0,"<65",1.0,"WHITE",1.0,"M","Y","Y","Y","Week 24",24.0,"WEEK 24",12.0,169.0,"2014-08-27","Delayed Word Recall","ACITM03",3.0,8.0,10.0,-2.0,-20.0,null,"Y",null,">140",168.0,1.0,141.0,null,"DAYS",5048.0],["CDISCPILOT01","701","701","01-701-1118","2014-03-12","2014-09-09","Placebo",0.0,52.0,"<65",1.0,"WHITE",1.0,"M","Y","Y","Y","Week 8",8.0,"WEEK 8",8.0,58.0,"2014-05-08","Commands","ACITM04",4.0,0.0,0.0,0.0,null,null,"Y",null,"2-84",56.0,2.0,2.0,84.0,"DAYS",5019.0],["CDISCPILOT01","701","701","01-701-1118","2014-03-12","2014-09-09","Placebo",0.0,52.0,"<65",1.0,"WHITE",1.0,"M","Y","Y","Y","Week 16",16.0,"WEEK 16",10.0,113.0,"2014-07-02","Commands","ACITM04",4.0,0.0,0.0,0.0,null,null,"Y",null,"85-140",112.0,1.0,85.0,140.0,"DAYS",5034.0],["CDISCPILOT01","701","701","01-701-1118","2014-03-12","2014-09-09","Placebo",0.0,52.0,"<65",1.0,"WHITE",1.0,"M","Y","Y","Y","Week 24",24.0,"WEEK 24",12.0,169.0,"2014-08-27","Commands","ACITM04",4.0,0.0,0.0,0.0,null,null,"Y",null,">140",168.0,1.0,141.0,null,"DAYS",5049.0],["CDISCPILOT01","701","701","01-701-1118","2014-03-12","2014-09-09","Placebo",0.0,52.0,"<65",1.0,"WHITE",1.0,"M","Y","Y","Y","Week 8",8.0,"WEEK 8",8.0,58.0,"2014-05-08","Constructional Praxis","ACITM05",5.0,3.0,3.0,0.0,0.0,null,"Y",null,"2-84",56.0,2.0,2.0,84.0,"DAYS",5020.0],["CDISCPILOT01","701","701","01-701-1118","2014-03-12","2014-09-09","Placebo",0.0,52.0,"<65",1.0,"WHITE",1.0,"M","Y","Y","Y","Week 16",16.0,"WEEK 16",10.0,113.0,"2014-07-02","Constructional Praxis","ACITM05",5.0,2.0,3.0,-1.0,-33.33333333333333,null,"Y",null,"85-140",112.0,1.0,85.0,140.0,"DAYS",5035.0],["CDISCPILOT01","701","701","01-701-1118","2014-03-12","2014-09-09","Placebo",0.0,52.0,"<65",1.0,"WHITE",1.0,"M","Y","Y","Y","Week 24",24.0,"WEEK 24",12.0,169.0,"2014-08-27","Constructional Praxis","ACITM05",5.0,2.0,3.0,-1.0,-33.33333333333333,null,"Y",null,">140",168.0,1.0,141.0,null,"DAYS",5050.0],["CDISCPILOT01","701","701","01-701-1118","2014-03-12","2014-09-09","Placebo",0.0,52.0,"<65",1.0,"WHITE",1.0,"M","Y","Y","Y","Week 8",8.0,"WEEK 8",8.0,58.0,"2014-05-08","Ideational Praxis","ACITM06",6.0,0.0,1.0,-1.0,-100.0,null,"Y",null,"2-84",56.0,2.0,2.0,84.0,"DAYS",5021.0],["CDISCPILOT01","701","701","01-701-1118","2014-03-12","2014-09-09","Placebo",0.0,52.0,"<65",1.0,"WHITE",1.0,"M","Y","Y","Y","Week 16",16.0,"WEEK 16",10.0,113.0,"2014-07-02","Ideational Praxis","ACITM06",6.0,0.0,1.0,-1.0,-100.0,null,"Y",null,"85-140",112.0,1.0,85.0,140.0,"DAYS",5036.0],["CDISCPILOT01","701","701","01-701-1118","2014-03-12","2014-09-09","Placebo",0.0,52.0,"<65",1.0,"WHITE",1.0,"M","Y","Y","Y","Week 24",24.0,"WEEK 24",12.0,169.0,"2014-08-27","Ideational Praxis","ACITM06",6.0,0.0,1.0,-1.0,-100.0,null,"Y",null,">140",168.0,1.0,141.0,null,"DAYS",5051.0],["CDISCPILOT01","701","701","01-701-1118","2014-03-12","2014-09-09","Placebo",0.0,52.0,"<65",1.0,"WHITE",1.0,"M","Y","Y","Y","Week 8",8.0,"WEEK 8",8.0,58.0,"2014-05-08","Orientation","ACITM07",7.0,1.0,4.0,-3.0,-75.0,null,"Y",null,"2-84",56.0,2.0,2.0,84.0,"DAYS",5022.0],["CDISCPILOT01","701","701","01-701-1118","2014-03-12","2014-09-09","Placebo",0.0,52.0,"<65",1.0,"WHITE",1.0,"M","Y","Y","Y","Week 16",16.0,"WEEK 16",10.0,113.0,"2014-07-02","Orientation","ACITM07",7.0,1.0,4.0,-3.0,-75.0,null,"Y",null,"85-140",112.0,1.0,85.0,140.0,"DAYS",5037.0],["CDISCPILOT01","701","701","01-701-1118","2014-03-12","2014-09-09","Placebo",0.0,52.0,"<65",1.0,"WHITE",1.0,"M","Y","Y","Y","Week 24",24.0,"WEEK 24",12.0,169.0,"2014-08-27","Orientation","ACITM07",7.0,1.0,4.0,-3.0,-75.0,null,"Y",null,">140",168.0,1.0,141.0,null,"DAYS",5052.0],["CDISCPILOT01","701","701","01-701-1118","2014-03-12","2014-09-09","Placebo",0.0,52.0,"<65",1.0,"WHITE",1.0,"M","Y","Y","Y","Week 8",8.0,"WEEK 8",8.0,58.0,"2014-05-08","Word Recognition","ACITM08",8.0,10.0,10.0,0.0,0.0,null,"Y",null,"2-84",56.0,2.0,2.0,84.0,"DAYS",5023.0],["CDISCPILOT01","701","701","01-701-1118","2014-03-12","2014-09-09","Placebo",0.0,52.0,"<65",1.0,"WHITE",1.0,"M","Y","Y","Y","Week 16",16.0,"WEEK 16",10.0,113.0,"2014-07-02","Word Recognition","ACITM08",8.0,10.0,10.0,0.0,0.0,null,"Y",null,"85-140",112.0,1.0,85.0,140.0,"DAYS",5038.0],["CDISCPILOT01","701","701","01-701-1118","2014-03-12","2014-09-09","Placebo",0.0,52.0,"<65",1.0,"WHITE",1.0,"M","Y","Y","Y","Week 24",24.0,"WEEK 24",12.0,169.0,"2014-08-27","Word Recognition","ACITM08",8.0,7.0,10.0,-3.0,-30.0,null,"Y",null,">140",168.0,1.0,141.0,null,"DAYS",5053.0],["CDISCPILOT01","701","701","01-701-1118","2014-03-12","2014-09-09","Placebo",0.0,52.0,"<65",1.0,"WHITE",1.0,"M","Y","Y","Y","Week 8",8.0,"WEEK 8",8.0,58.0,"2014-05-08","Attention/Visual Search Task","ACITM09",9.0,10.0,12.0,-2.0,-16.666666666666664,null,"Y",null,"2-84",56.0,2.0,2.0,84.0,"DAYS",5024.0],["CDISCPILOT01","701","701","01-701-1118","2014-03-12","2014-09-09","Placebo",0.0,52.0,"<65",1.0,"WHITE",1.0,"M","Y","Y","Y","Week 16",16.0,"WEEK 16",10.0,113.0,"2014-07-02","Attention/Visual Search Task","ACITM09",9.0,11.0,12.0,-1.0,-8.333333333333332,null,"Y",null,"85-140",112.0,1.0,85.0,140.0,"DAYS",5039.0],["CDISCPILOT01","701","701","01-701-1118","2014-03-12","2014-09-09","Placebo",0.0,52.0,"<65",1.0,"WHITE",1.0,"M","Y","Y","Y","Week 24",24.0,"WEEK 24",12.0,169.0,"2014-08-27","Attention/Visual Search Task","ACITM09",9.0,18.0,12.0,6.0,50.0,null,"Y",null,">140",168.0,1.0,141.0,null,"DAYS",5054.0],["CDISCPILOT01","701","701","01-701-1118","2014-03-12","2014-09-09","Placebo",0.0,52.0,"<65",1.0,"WHITE",1.0,"M","Y","Y","Y","Week 8",8.0,"WEEK 8",8.0,58.0,"2014-05-08","Maze Solution","ACITM10",10.0,7.0,6.0,1.0,16.666666666666664,null,"Y",null,"2-84",56.0,2.0,2.0,84.0,"DAYS",5025.0],["CDISCPILOT01","701","701","01-701-1118","2014-03-12","2014-09-09","Placebo",0.0,52.0,"<65",1.0,"WHITE",1.0,"M","Y","Y","Y","Week 16",16.0,"WEEK 16",10.0,113.0,"2014-07-02","Maze Solution","ACITM10",10.0,9.0,6.0,3.0,50.0,null,"Y",null,"85-140",112.0,1.0,85.0,140.0,"DAYS",5040.0],["CDISCPILOT01","701","701","01-701-1118","2014-03-12","2014-09-09","Placebo",0.0,52.0,"<65",1.0,"WHITE",1.0,"M","Y","Y","Y","Week 24",24.0,"WEEK 24",12.0,169.0,"2014-08-27","Maze Solution","ACITM10",10.0,7.0,6.0,1.0,16.666666666666664,null,"Y",null,">140",168.0,1.0,141.0,null,"DAYS",5055.0],["CDISCPILOT01","701","701","01-701-1118","2014-03-12","2014-09-09","Placebo",0.0,52.0,"<65",1.0,"WHITE",1.0,"M","Y","Y","Y","Week 8",8.0,"WEEK 8",8.0,58.0,"2014-05-08","Spoken Language Ability","ACITM11",11.0,0.0,0.0,0.0,null,null,"Y",null,"2-84",56.0,2.0,2.0,84.0,"DAYS",5026.0],["CDISCPILOT01","701","701","01-701-1118","2014-03-12","2014-09-09","Placebo",0.0,52.0,"<65",1.0,"WHITE",1.0,"M","Y","Y","Y","Week 16",16.0,"WEEK 16",10.0,113.0,"2014-07-02","Spoken Language Ability","ACITM11",11.0,0.0,0.0,0.0,null,null,"Y",null,"85-140",112.0,1.0,85.0,140.0,"DAYS",5041.0],["CDISCPILOT01","701","701","01-701-1118","2014-03-12","2014-09-09","Placebo",0.0,52.0,"<65",1.0,"WHITE",1.0,"M","Y","Y","Y","Week 24",24.0,"WEEK 24",12.0,169.0,"2014-08-27","Spoken Language Ability","ACITM11",11.0,0.0,0.0,0.0,null,null,"Y",null,">140",168.0,1.0,141.0,null,"DAYS",5056.0],["CDISCPILOT01","701","701","01-701-1118","2014-03-12","2014-09-09","Placebo",0.0,52.0,"<65",1.0,"WHITE",1.0,"M","Y","Y","Y","Week 8",8.0,"WEEK 8",8.0,58.0,"2014-05-08","Comprehension Of Spoken Language","ACITM12",12.0,0.0,0.0,0.0,null,null,"Y",null,"2-84",56.0,2.0,2.0,84.0,"DAYS",5027.0],["CDISCPILOT01","701","701","01-701-1118","2014-03-12","2014-09-09","Placebo",0.0,52.0,"<65",1.0,"WHITE",1.0,"M","Y","Y","Y","Week 16",16.0,"WEEK 16",10.0,113.0,"2014-07-02","Comprehension Of Spoken Language","ACITM12",12.0,0.0,0.0,0.0,null,null,"Y",null,"85-140",112.0,1.0,85.0,140.0,"DAYS",5042.0],["CDISCPILOT01","701","701","01-701-1118","2014-03-12","2014-09-09","Placebo",0.0,52.0,"<65",1.0,"WHITE",1.0,"M","Y","Y","Y","Week 24",24.0,"WEEK 24",12.0,169.0,"2014-08-27","Comprehension Of Spoken Language","ACITM12",12.0,0.0,0.0,0.0,null,null,"Y",null,">140",168.0,1.0,141.0,null,"DAYS",5057.0],["CDISCPILOT01","701","701","01-701-1118","2014-03-12","2014-09-09","Placebo",0.0,52.0,"<65",1.0,"WHITE",1.0,"M","Y","Y","Y","Week 8",8.0,"WEEK 8",8.0,58.0,"2014-05-08","Word Finding Difficulty In Spontaneous S","ACITM13",13.0,0.0,1.0,-1.0,-100.0,null,"Y",null,"2-84",56.0,2.0,2.0,84.0,"DAYS",5028.0],["CDISCPILOT01","701","701","01-701-1118","2014-03-12","2014-09-09","Placebo",0.0,52.0,"<65",1.0,"WHITE",1.0,"M","Y","Y","Y","Week 16",16.0,"WEEK 16",10.0,113.0,"2014-07-02","Word Finding Difficulty In Spontaneous S","ACITM13",13.0,0.0,1.0,-1.0,-100.0,null,"Y",null,"85-140",112.0,1.0,85.0,140.0,"DAYS",5043.0],["CDISCPILOT01","701","701","01-701-1118","2014-03-12","2014-09-09","Placebo",0.0,52.0,"<65",1.0,"WHITE",1.0,"M","Y","Y","Y","Week 24",24.0,"WEEK 24",12.0,169.0,"2014-08-27","Word Finding Difficulty In Spontaneous S","ACITM13",13.0,0.0,1.0,-1.0,-100.0,null,"Y",null,">140",168.0,1.0,141.0,null,"DAYS",5058.0],["CDISCPILOT01","701","701","01-701-1118","2014-03-12","2014-09-09","Placebo",0.0,52.0,"<65",1.0,"WHITE",1.0,"M","Y","Y","Y","Week 8",8.0,"WEEK 8",8.0,58.0,"2014-05-08","Recall Of Test Instructions","ACITM14",14.0,0.0,1.0,-1.0,-100.0,null,"Y",null,"2-84",56.0,2.0,2.0,84.0,"DAYS",5029.0],["CDISCPILOT01","701","701","01-701-1118","2014-03-12","2014-09-09","Placebo",0.0,52.0,"<65",1.0,"WHITE",1.0,"M","Y","Y","Y","Week 16",16.0,"WEEK 16",10.0,113.0,"2014-07-02","Recall Of Test Instructions","ACITM14",14.0,0.0,1.0,-1.0,-100.0,null,"Y",null,"85-140",112.0,1.0,85.0,140.0,"DAYS",5044.0],["CDISCPILOT01","701","701","01-701-1118","2014-03-12","2014-09-09","Placebo",0.0,52.0,"<65",1.0,"WHITE",1.0,"M","Y","Y","Y","Week 24",24.0,"WEEK 24",12.0,169.0,"2014-08-27","Recall Of Test Instructions","ACITM14",14.0,0.0,1.0,-1.0,-100.0,null,"Y",null,">140",168.0,1.0,141.0,null,"DAYS",5059.0],["CDISCPILOT01","701","701","01-701-1118","2014-03-12","2014-09-09","Placebo",0.0,52.0,"<65",1.0,"WHITE",1.0,"M","Y","Y","Y","Week 8",8.0,"WEEK 8",8.0,58.0,"2014-05-08","Adas-Cog(11) Subscore","ACTOT",15.0,19.0,26.0,-7.0,-26.923076923076923,null,"Y",null,"2-84",56.0,2.0,2.0,84.0,"DAYS",5030.0],["CDISCPILOT01","701","701","01-701-1118","2014-03-12","2014-09-09","Placebo",0.0,52.0,"<65",1.0,"WHITE",1.0,"M","Y","Y","Y","Week 16",16.0,"WEEK 16",10.0,113.0,"2014-07-02","Adas-Cog(11) Subscore","ACTOT",15.0,17.0,26.0,-9.0,-34.61538461538461,null,"Y",null,"85-140",112.0,1.0,85.0,140.0,"DAYS",5045.0],["CDISCPILOT01","701","701","01-701-1118","2014-03-12","2014-09-09","Placebo",0.0,52.0,"<65",1.0,"WHITE",1.0,"M","Y","Y","Y","Week 24",24.0,"WEEK 24",12.0,169.0,"2014-08-27","Adas-Cog(11) Subscore","ACTOT",15.0,15.0,26.0,-11.0,-42.30769230769231,null,"Y",null,">140",168.0,1.0,141.0,null,"DAYS",5060.0],["CDISCPILOT01","701","701","01-701-1130","2014-02-15","2014-08-16","Placebo",0.0,84.0,">80",3.0,"WHITE",1.0,"M","Y","Y","Y","Week 8",8.0,"WEEK 8",8.0,57.0,"2014-04-12","Word Recall Task","ACITM01",1.0,4.0,4.0,0.0,0.0,null,"Y",null,"2-84",56.0,1.0,2.0,84.0,"DAYS",5016.0],["CDISCPILOT01","701","701","01-701-1130","2014-02-15","2014-08-16","Placebo",0.0,84.0,">80",3.0,"WHITE",1.0,"M","Y","Y","Y","Week 16",16.0,"WEEK 16",10.0,113.0,"2014-06-07","Word Recall Task","ACITM01",1.0,5.0,4.0,1.0,25.0,null,"Y",null,"85-140",112.0,1.0,85.0,140.0,"DAYS",5031.0],["CDISCPILOT01","701","701","01-701-1130","2014-02-15","2014-08-16","Placebo",0.0,84.0,">80",3.0,"WHITE",1.0,"M","Y","Y","Y","Week 24",24.0,"WEEK 24",12.0,169.0,"2014-08-02","Word Recall Task","ACITM01",1.0,4.0,4.0,0.0,0.0,null,"Y",null,">140",168.0,1.0,141.0,null,"DAYS",5046.0],["CDISCPILOT01","701","701","01-701-1130","2014-02-15","2014-08-16","Placebo",0.0,84.0,">80",3.0,"WHITE",1.0,"M","Y","Y","Y","Week 8",8.0,"WEEK 8",8.0,57.0,"2014-04-12","Naming Objects And Fingers (Refer To 5 C","ACITM02",2.0,0.0,0.0,0.0,null,null,"Y",null,"2-84",56.0,1.0,2.0,84.0,"DAYS",5017.0],["CDISCPILOT01","701","701","01-701-1130","2014-02-15","2014-08-16","Placebo",0.0,84.0,">80",3.0,"WHITE",1.0,"M","Y","Y","Y","Week 16",16.0,"WEEK 16",10.0,113.0,"2014-06-07","Naming Objects And Fingers (Refer To 5 C","ACITM02",2.0,0.0,0.0,0.0,null,null,"Y",null,"85-140",112.0,1.0,85.0,140.0,"DAYS",5032.0],["CDISCPILOT01","701","701","01-701-1130","2014-02-15","2014-08-16","Placebo",0.0,84.0,">80",3.0,"WHITE",1.0,"M","Y","Y","Y","Week 24",24.0,"WEEK 24",12.0,169.0,"2014-08-02","Naming Objects And Fingers (Refer To 5 C","ACITM02",2.0,0.0,0.0,0.0,null,null,"Y",null,">140",168.0,1.0,141.0,null,"DAYS",5047.0],["CDISCPILOT01","701","701","01-701-1130","2014-02-15","2014-08-16","Placebo",0.0,84.0,">80",3.0,"WHITE",1.0,"M","Y","Y","Y","Week 8",8.0,"WEEK 8",8.0,57.0,"2014-04-12","Delayed Word Recall","ACITM03",3.0,10.0,10.0,0.0,0.0,null,"Y",null,"2-84",56.0,1.0,2.0,84.0,"DAYS",5018.0],["CDISCPILOT01","701","701","01-701-1130","2014-02-15","2014-08-16","Placebo",0.0,84.0,">80",3.0,"WHITE",1.0,"M","Y","Y","Y","Week 16",16.0,"WEEK 16",10.0,113.0,"2014-06-07","Delayed Word Recall","ACITM03",3.0,10.0,10.0,0.0,0.0,null,"Y",null,"85-140",112.0,1.0,85.0,140.0,"DAYS",5033.0],["CDISCPILOT01","701","701","01-701-1130","2014-02-15","2014-08-16","Placebo",0.0,84.0,">80",3.0,"WHITE",1.0,"M","Y","Y","Y","Week 24",24.0,"WEEK 24",12.0,169.0,"2014-08-02","Delayed Word Recall","ACITM03",3.0,10.0,10.0,0.0,0.0,null,"Y",null,">140",168.0,1.0,141.0,null,"DAYS",5048.0],["CDISCPILOT01","701","701","01-701-1130","2014-02-15","2014-08-16","Placebo",0.0,84.0,">80",3.0,"WHITE",1.0,"M","Y","Y","Y","Week 8",8.0,"WEEK 8",8.0,57.0,"2014-04-12","Commands","ACITM04",4.0,0.0,0.0,0.0,null,null,"Y",null,"2-84",56.0,1.0,2.0,84.0,"DAYS",5019.0],["CDISCPILOT01","701","701","01-701-1130","2014-02-15","2014-08-16","Placebo",0.0,84.0,">80",3.0,"WHITE",1.0,"M","Y","Y","Y","Week 16",16.0,"WEEK 16",10.0,113.0,"2014-06-07","Commands","ACITM04",4.0,0.0,0.0,0.0,null,null,"Y",null,"85-140",112.0,1.0,85.0,140.0,"DAYS",5034.0],["CDISCPILOT01","701","701","01-701-1130","2014-02-15","2014-08-16","Placebo",0.0,84.0,">80",3.0,"WHITE",1.0,"M","Y","Y","Y","Week 24",24.0,"WEEK 24",12.0,169.0,"2014-08-02","Commands","ACITM04",4.0,0.0,0.0,0.0,null,null,"Y",null,">140",168.0,1.0,141.0,null,"DAYS",5049.0],["CDISCPILOT01","701","701","01-701-1130","2014-02-15","2014-08-16","Placebo",0.0,84.0,">80",3.0,"WHITE",1.0,"M","Y","Y","Y","Week 8",8.0,"WEEK 8",8.0,57.0,"2014-04-12","Constructional Praxis","ACITM05",5.0,1.0,0.0,1.0,null,null,"Y",null,"2-84",56.0,1.0,2.0,84.0,"DAYS",5020.0],["CDISCPILOT01","701","701","01-701-1130","2014-02-15","2014-08-16","Placebo",0.0,84.0,">80",3.0,"WHITE",1.0,"M","Y","Y","Y","Week 16",16.0,"WEEK 16",10.0,113.0,"2014-06-07","Constructional Praxis","ACITM05",5.0,0.0,0.0,0.0,null,null,"Y",null,"85-140",112.0,1.0,85.0,140.0,"DAYS",5035.0],["CDISCPILOT01","701","701","01-701-1130","2014-02-15","2014-08-16","Placebo",0.0,84.0,">80",3.0,"WHITE",1.0,"M","Y","Y","Y","Week 24",24.0,"WEEK 24",12.0,169.0,"2014-08-02","Constructional Praxis","ACITM05",5.0,1.0,0.0,1.0,null,null,"Y",null,">140",168.0,1.0,141.0,null,"DAYS",5050.0],["CDISCPILOT01","701","701","01-701-1130","2014-02-15","2014-08-16","Placebo",0.0,84.0,">80",3.0,"WHITE",1.0,"M","Y","Y","Y","Week 8",8.0,"WEEK 8",8.0,57.0,"2014-04-12","Ideational Praxis","ACITM06",6.0,1.0,2.0,-1.0,-50.0,null,"Y",null,"2-84",56.0,1.0,2.0,84.0,"DAYS",5021.0],["CDISCPILOT01","701","701","01-701-1130","2014-02-15","2014-08-16","Placebo",0.0,84.0,">80",3.0,"WHITE",1.0,"M","Y","Y","Y","Week 16",16.0,"WEEK 16",10.0,113.0,"2014-06-07","Ideational Praxis","ACITM06",6.0,1.0,2.0,-1.0,-50.0,null,"Y",null,"85-140",112.0,1.0,85.0,140.0,"DAYS",5036.0],["CDISCPILOT01","701","701","01-701-1130","2014-02-15","2014-08-16","Placebo",0.0,84.0,">80",3.0,"WHITE",1.0,"M","Y","Y","Y","Week 24",24.0,"WEEK 24",12.0,169.0,"2014-08-02","Ideational Praxis","ACITM06",6.0,1.0,2.0,-1.0,-50.0,null,"Y",null,">140",168.0,1.0,141.0,null,"DAYS",5051.0],["CDISCPILOT01","701","701","01-701-1130","2014-02-15","2014-08-16","Placebo",0.0,84.0,">80",3.0,"WHITE",1.0,"M","Y","Y","Y","Week 8",8.0,"WEEK 8",8.0,57.0,"2014-04-12","Orientation","ACITM07",7.0,3.0,5.0,-2.0,-40.0,null,"Y",null,"2-84",56.0,1.0,2.0,84.0,"DAYS",5022.0],["CDISCPILOT01","701","701","01-701-1130","2014-02-15","2014-08-16","Placebo",0.0,84.0,">80",3.0,"WHITE",1.0,"M","Y","Y","Y","Week 16",16.0,"WEEK 16",10.0,113.0,"2014-06-07","Orientation","ACITM07",7.0,3.0,5.0,-2.0,-40.0,null,"Y",null,"85-140",112.0,1.0,85.0,140.0,"DAYS",5037.0],["CDISCPILOT01","701","701","01-701-1130","2014-02-15","2014-08-16","Placebo",0.0,84.0,">80",3.0,"WHITE",1.0,"M","Y","Y","Y","Week 24",24.0,"WEEK 24",12.0,169.0,"2014-08-02","Orientation","ACITM07",7.0,3.0,5.0,-2.0,-40.0,null,"Y",null,">140",168.0,1.0,141.0,null,"DAYS",5052.0],["CDISCPILOT01","701","701","01-701-1130","2014-02-15","2014-08-16","Placebo",0.0,84.0,">80",3.0,"WHITE",1.0,"M","Y","Y","Y","Week 8",8.0,"WEEK 8",8.0,57.0,"2014-04-12","Word Recognition","ACITM08",8.0,3.0,8.0,-5.0,-62.5,null,"Y",null,"2-84",56.0,1.0,2.0,84.0,"DAYS",5023.0],["CDISCPILOT01","701","701","01-701-1130","2014-02-15","2014-08-16","Placebo",0.0,84.0,">80",3.0,"WHITE",1.0,"M","Y","Y","Y","Week 16",16.0,"WEEK 16",10.0,113.0,"2014-06-07","Word Recognition","ACITM08",8.0,3.0,8.0,-5.0,-62.5,null,"Y",null,"85-140",112.0,1.0,85.0,140.0,"DAYS",5038.0],["CDISCPILOT01","701","701","01-701-1130","2014-02-15","2014-08-16","Placebo",0.0,84.0,">80",3.0,"WHITE",1.0,"M","Y","Y","Y","Week 24",24.0,"WEEK 24",12.0,169.0,"2014-08-02","Word Recognition","ACITM08",8.0,5.0,8.0,-3.0,-37.5,null,"Y",null,">140",168.0,1.0,141.0,null,"DAYS",5053.0],["CDISCPILOT01","701","701","01-701-1130","2014-02-15","2014-08-16","Placebo",0.0,84.0,">80",3.0,"WHITE",1.0,"M","Y","Y","Y","Week 8",8.0,"WEEK 8",8.0,57.0,"2014-04-12","Attention/Visual Search Task","ACITM09",9.0,19.0,25.0,-6.0,-24.0,null,"Y",null,"2-84",56.0,1.0,2.0,84.0,"DAYS",5024.0],["CDISCPILOT01","701","701","01-701-1130","2014-02-15","2014-08-16","Placebo",0.0,84.0,">80",3.0,"WHITE",1.0,"M","Y","Y","Y","Week 16",16.0,"WEEK 16",10.0,113.0,"2014-06-07","Attention/Visual Search Task","ACITM09",9.0,24.0,25.0,-1.0,-4.0,null,"Y",null,"85-140",112.0,1.0,85.0,140.0,"DAYS",5039.0],["CDISCPILOT01","701","701","01-701-1130","2014-02-15","2014-08-16","Placebo",0.0,84.0,">80",3.0,"WHITE",1.0,"M","Y","Y","Y","Week 24",24.0,"WEEK 24",12.0,169.0,"2014-08-02","Attention/Visual Search Task","ACITM09",9.0,28.0,25.0,3.0,12.0,null,"Y",null,">140",168.0,1.0,141.0,null,"DAYS",5054.0],["CDISCPILOT01","701","701","01-701-1130","2014-02-15","2014-08-16","Placebo",0.0,84.0,">80",3.0,"WHITE",1.0,"M","Y","Y","Y","Week 8",8.0,"WEEK 8",8.0,57.0,"2014-04-12","Maze Solution","ACITM10",10.0,8.0,4.0,4.0,100.0,null,"Y",null,"2-84",56.0,1.0,2.0,84.0,"DAYS",5025.0],["CDISCPILOT01","701","701","01-701-1130","2014-02-15","2014-08-16","Placebo",0.0,84.0,">80",3.0,"WHITE",1.0,"M","Y","Y","Y","Week 16",16.0,"WEEK 16",10.0,113.0,"2014-06-07","Maze Solution","ACITM10",10.0,7.0,4.0,3.0,75.0,null,"Y",null,"85-140",112.0,1.0,85.0,140.0,"DAYS",5040.0],["CDISCPILOT01","701","701","01-701-1130","2014-02-15","2014-08-16","Placebo",0.0,84.0,">80",3.0,"WHITE",1.0,"M","Y","Y","Y","Week 24",24.0,"WEEK 24",12.0,169.0,"2014-08-02","Maze Solution","ACITM10",10.0,5.0,4.0,1.0,25.0,null,"Y",null,">140",168.0,1.0,141.0,null,"DAYS",5055.0],["CDISCPILOT01","701","701","01-701-1130","2014-02-15","2014-08-16","Placebo",0.0,84.0,">80",3.0,"WHITE",1.0,"M","Y","Y","Y","Week 8",8.0,"WEEK 8",8.0,57.0,"2014-04-12","Spoken Language Ability","ACITM11",11.0,0.0,0.0,0.0,null,null,"Y",null,"2-84",56.0,1.0,2.0,84.0,"DAYS",5026.0],["CDISCPILOT01","701","701","01-701-1130","2014-02-15","2014-08-16","Placebo",0.0,84.0,">80",3.0,"WHITE",1.0,"M","Y","Y","Y","Week 16",16.0,"WEEK 16",10.0,113.0,"2014-06-07","Spoken Language Ability","ACITM11",11.0,0.0,0.0,0.0,null,null,"Y",null,"85-140",112.0,1.0,85.0,140.0,"DAYS",5041.0],["CDISCPILOT01","701","701","01-701-1130","2014-02-15","2014-08-16","Placebo",0.0,84.0,">80",3.0,"WHITE",1.0,"M","Y","Y","Y","Week 24",24.0,"WEEK 24",12.0,169.0,"2014-08-02","Spoken Language Ability","ACITM11",11.0,0.0,0.0,0.0,null,null,"Y",null,">140",168.0,1.0,141.0,null,"DAYS",5056.0],["CDISCPILOT01","701","701","01-701-1130","2014-02-15","2014-08-16","Placebo",0.0,84.0,">80",3.0,"WHITE",1.0,"M","Y","Y","Y","Week 8",8.0,"WEEK 8",8.0,57.0,"2014-04-12","Comprehension Of Spoken Language","ACITM12",12.0,0.0,0.0,0.0,null,null,"Y",null,"2-84",56.0,1.0,2.0,84.0,"DAYS",5027.0],["CDISCPILOT01","701","701","01-701-1130","2014-02-15","2014-08-16","Placebo",0.0,84.0,">80",3.0,"WHITE",1.0,"M","Y","Y","Y","Week 16",16.0,"WEEK 16",10.0,113.0,"2014-06-07","Comprehension Of Spoken Language","ACITM12",12.0,0.0,0.0,0.0,null,null,"Y",null,"85-140",112.0,1.0,85.0,140.0,"DAYS",5042.0],["CDISCPILOT01","701","701","01-701-1130","2014-02-15","2014-08-16","Placebo",0.0,84.0,">80",3.0,"WHITE",1.0,"M","Y","Y","Y","Week 24",24.0,"WEEK 24",12.0,169.0,"2014-08-02","Comprehension Of Spoken Language","ACITM12",12.0,0.0,0.0,0.0,null,null,"Y",null,">140",168.0,1.0,141.0,null,"DAYS",5057.0],["CDISCPILOT01","701","701","01-701-1130","2014-02-15","2014-08-16","Placebo",0.0,84.0,">80",3.0,"WHITE",1.0,"M","Y","Y","Y","Week 8",8.0,"WEEK 8",8.0,57.0,"2014-04-12","Word Finding Difficulty In Spontaneous S","ACITM13",13.0,0.0,0.0,0.0,null,null,"Y",null,"2-84",56.0,1.0,2.0,84.0,"DAYS",5028.0],["CDISCPILOT01","701","701","01-701-1130","2014-02-15","2014-08-16","Placebo",0.0,84.0,">80",3.0,"WHITE",1.0,"M","Y","Y","Y","Week 16",16.0,"WEEK 16",10.0,113.0,"2014-06-07","Word Finding Difficulty In Spontaneous S","ACITM13",13.0,0.0,0.0,0.0,null,null,"Y",null,"85-140",112.0,1.0,85.0,140.0,"DAYS",5043.0],["CDISCPILOT01","701","701","01-701-1130","2014-02-15","2014-08-16","Placebo",0.0,84.0,">80",3.0,"WHITE",1.0,"M","Y","Y","Y","Week 24",24.0,"WEEK 24",12.0,169.0,"2014-08-02","Word Finding Difficulty In Spontaneous S","ACITM13",13.0,0.0,0.0,0.0,null,null,"Y",null,">140",168.0,1.0,141.0,null,"DAYS",5058.0],["CDISCPILOT01","701","701","01-701-1130","2014-02-15","2014-08-16","Placebo",0.0,84.0,">80",3.0,"WHITE",1.0,"M","Y","Y","Y","Week 8",8.0,"WEEK 8",8.0,57.0,"2014-04-12","Recall Of Test Instructions","ACITM14",14.0,0.0,0.0,0.0,null,null,"Y",null,"2-84",56.0,1.0,2.0,84.0,"DAYS",5029.0],["CDISCPILOT01","701","701","01-701-1130","2014-02-15","2014-08-16","Placebo",0.0,84.0,">80",3.0,"WHITE",1.0,"M","Y","Y","Y","Week 16",16.0,"WEEK 16",10.0,113.0,"2014-06-07","Recall Of Test Instructions","ACITM14",14.0,0.0,0.0,0.0,null,null,"Y",null,"85-140",112.0,1.0,85.0,140.0,"DAYS",5044.0],["CDISCPILOT01","701","701","01-701-1130","2014-02-15","2014-08-16","Placebo",0.0,84.0,">80",3.0,"WHITE",1.0,"M","Y","Y","Y","Week 24",24.0,"WEEK 24",12.0,169.0,"2014-08-02","Recall Of Test Instructions","ACITM14",14.0,0.0,0.0,0.0,null,null,"Y",null,">140",168.0,1.0,141.0,null,"DAYS",5059.0],["CDISCPILOT01","701","701","01-701-1130","2014-02-15","2014-08-16","Placebo",0.0,84.0,">80",3.0,"WHITE",1.0,"M","Y","Y","Y","Week 8",8.0,"WEEK 8",8.0,57.0,"2014-04-12","Adas-Cog(11) Subscore","ACTOT",15.0,12.0,19.0,-7.0,-36.84210526315789,null,"Y",null,"2-84",56.0,1.0,2.0,84.0,"DAYS",5030.0],["CDISCPILOT01","701","701","01-701-1130","2014-02-15","2014-08-16","Placebo",0.0,84.0,">80",3.0,"WHITE",1.0,"M","Y","Y","Y","Week 16",16.0,"WEEK 16",10.0,113.0,"2014-06-07","Adas-Cog(11) Subscore","ACTOT",15.0,12.0,19.0,-7.0,-36.84210526315789,null,"Y",null,"85-140",112.0,1.0,85.0,140.0,"DAYS",5045.0],["CDISCPILOT01","701","701","01-701-1130","2014-02-15","2014-08-16","Placebo",0.0,84.0,">80",3.0,"WHITE",1.0,"M","Y","Y","Y","Week 24",24.0,"WEEK 24",12.0,169.0,"2014-08-02","Adas-Cog(11) Subscore","ACTOT",15.0,14.0,19.0,-5.0,-26.31578947368421,null,"Y",null,">140",168.0,1.0,141.0,null,"DAYS",5060.0],["CDISCPILOT01","701","701","01-701-1133","2012-10-28","2013-04-28","Xanomeline High Dose",81.0,81.0,">80",3.0,"WHITE",1.0,"F","Y","Y","Y","Week 8",8.0,"WEEK 8",8.0,58.0,"2012-12-24","Word Recall Task","ACITM01",1.0,6.0,7.0,-1.0,-14.285714285714285,null,"Y",null,"2-84",56.0,2.0,2.0,84.0,"DAYS",5016.0],["CDISCPILOT01","701","701","01-701-1133","2012-10-28","2013-04-28","Xanomeline High Dose",81.0,81.0,">80",3.0,"WHITE",1.0,"F","Y","Y","Y","Week 16",16.0,"WEEK 16",10.0,114.0,"2013-02-18","Word Recall Task","ACITM01",1.0,6.0,7.0,-1.0,-14.285714285714285,null,"Y",null,"85-140",112.0,2.0,85.0,140.0,"DAYS",5031.0],["CDISCPILOT01","701","701","01-701-1133","2012-10-28","2013-04-28","Xanomeline High Dose",81.0,81.0,">80",3.0,"WHITE",1.0,"F","Y","Y","Y","Week 24",24.0,"WEEK 24",12.0,173.0,"2013-04-18","Word Recall Task","ACITM01",1.0,6.0,7.0,-1.0,-14.285714285714285,null,"Y",null,">140",168.0,5.0,141.0,null,"DAYS",5046.0],["CDISCPILOT01","701","701","01-701-1133","2012-10-28","2013-04-28","Xanomeline High Dose",81.0,81.0,">80",3.0,"WHITE",1.0,"F","Y","Y","Y","Week 8",8.0,"WEEK 8",8.0,58.0,"2012-12-24","Naming Objects And Fingers (Refer To 5 C","ACITM02",2.0,0.0,0.0,0.0,null,null,"Y",null,"2-84",56.0,2.0,2.0,84.0,"DAYS",5017.0],["CDISCPILOT01","701","701","01-701-1133","2012-10-28","2013-04-28","Xanomeline High Dose",81.0,81.0,">80",3.0,"WHITE",1.0,"F","Y","Y","Y","Week 16",16.0,"WEEK 16",10.0,114.0,"2013-02-18","Naming Objects And Fingers (Refer To 5 C","ACITM02",2.0,0.0,0.0,0.0,null,null,"Y",null,"85-140",112.0,2.0,85.0,140.0,"DAYS",5032.0],["CDISCPILOT01","701","701","01-701-1133","2012-10-28","2013-04-28","Xanomeline High Dose",81.0,81.0,">80",3.0,"WHITE",1.0,"F","Y","Y","Y","Week 24",24.0,"WEEK 24",12.0,173.0,"2013-04-18","Naming Objects And Fingers (Refer To 5 C","ACITM02",2.0,0.0,0.0,0.0,null,null,"Y",null,">140",168.0,5.0,141.0,null,"DAYS",5047.0],["CDISCPILOT01","701","701","01-701-1133","2012-10-28","2013-04-28","Xanomeline High Dose",81.0,81.0,">80",3.0,"WHITE",1.0,"F","Y","Y","Y","Week 8",8.0,"WEEK 8",8.0,58.0,"2012-12-24","Delayed Word Recall","ACITM03",3.0,9.0,9.0,0.0,0.0,null,"Y",null,"2-84",56.0,2.0,2.0,84.0,"DAYS",5018.0],["CDISCPILOT01","701","701","01-701-1133","2012-10-28","2013-04-28","Xanomeline High Dose",81.0,81.0,">80",3.0,"WHITE",1.0,"F","Y","Y","Y","Week 16",16.0,"WEEK 16",10.0,114.0,"2013-02-18","Delayed Word Recall","ACITM03",3.0,8.0,9.0,-1.0,-11.11111111111111,null,"Y",null,"85-140",112.0,2.0,85.0,140.0,"DAYS",5033.0],["CDISCPILOT01","701","701","01-701-1133","2012-10-28","2013-04-28","Xanomeline High Dose",81.0,81.0,">80",3.0,"WHITE",1.0,"F","Y","Y","Y","Week 24",24.0,"WEEK 24",12.0,173.0,"2013-04-18","Delayed Word Recall","ACITM03",3.0,10.0,9.0,1.0,11.11111111111111,null,"Y",null,">140",168.0,5.0,141.0,null,"DAYS",5048.0],["CDISCPILOT01","701","701","01-701-1133","2012-10-28","2013-04-28","Xanomeline High Dose",81.0,81.0,">80",3.0,"WHITE",1.0,"F","Y","Y","Y","Week 8",8.0,"WEEK 8",8.0,58.0,"2012-12-24","Commands","ACITM04",4.0,0.0,0.0,0.0,null,null,"Y",null,"2-84",56.0,2.0,2.0,84.0,"DAYS",5019.0],["CDISCPILOT01","701","701","01-701-1133","2012-10-28","2013-04-28","Xanomeline High Dose",81.0,81.0,">80",3.0,"WHITE",1.0,"F","Y","Y","Y","Week 16",16.0,"WEEK 16",10.0,114.0,"2013-02-18","Commands","ACITM04",4.0,0.0,0.0,0.0,null,null,"Y",null,"85-140",112.0,2.0,85.0,140.0,"DAYS",5034.0],["CDISCPILOT01","701","701","01-701-1133","2012-10-28","2013-04-28","Xanomeline High Dose",81.0,81.0,">80",3.0,"WHITE",1.0,"F","Y","Y","Y","Week 24",24.0,"WEEK 24",12.0,173.0,"2013-04-18","Commands","ACITM04",4.0,1.0,0.0,1.0,null,null,"Y",null,">140",168.0,5.0,141.0,null,"DAYS",5049.0],["CDISCPILOT01","701","701","01-701-1133","2012-10-28","2013-04-28","Xanomeline High Dose",81.0,81.0,">80",3.0,"WHITE",1.0,"F","Y","Y","Y","Week 8",8.0,"WEEK 8",8.0,58.0,"2012-12-24","Constructional Praxis","ACITM05",5.0,1.0,1.0,0.0,0.0,null,"Y",null,"2-84",56.0,2.0,2.0,84.0,"DAYS",5020.0],["CDISCPILOT01","701","701","01-701-1133","2012-10-28","2013-04-28","Xanomeline High Dose",81.0,81.0,">80",3.0,"WHITE",1.0,"F","Y","Y","Y","Week 16",16.0,"WEEK 16",10.0,114.0,"2013-02-18","Constructional Praxis","ACITM05",5.0,1.0,1.0,0.0,0.0,null,"Y",null,"85-140",112.0,2.0,85.0,140.0,"DAYS",5035.0],["CDISCPILOT01","701","701","01-701-1133","2012-10-28","2013-04-28","Xanomeline High Dose",81.0,81.0,">80",3.0,"WHITE",1.0,"F","Y","Y","Y","Week 24",24.0,"WEEK 24",12.0,173.0,"2013-04-18","Constructional Praxis","ACITM05",5.0,3.0,1.0,2.0,200.0,null,"Y",null,">140",168.0,5.0,141.0,null,"DAYS",5050.0],["CDISCPILOT01","701","701","01-701-1133","2012-10-28","2013-04-28","Xanomeline High Dose",81.0,81.0,">80",3.0,"WHITE",1.0,"F","Y","Y","Y","Week 8",8.0,"WEEK 8",8.0,58.0,"2012-12-24","Ideational Praxis","ACITM06",6.0,0.0,0.0,0.0,null,null,"Y",null,"2-84",56.0,2.0,2.0,84.0,"DAYS",5021.0],["CDISCPILOT01","701","701","01-701-1133","2012-10-28","2013-04-28","Xanomeline High Dose",81.0,81.0,">80",3.0,"WHITE",1.0,"F","Y","Y","Y","Week 16",16.0,"WEEK 16",10.0,114.0,"2013-02-18","Ideational Praxis","ACITM06",6.0,0.0,0.0,0.0,null,null,"Y",null,"85-140",112.0,2.0,85.0,140.0,"DAYS",5036.0],["CDISCPILOT01","701","701","01-701-1133","2012-10-28","2013-04-28","Xanomeline High Dose",81.0,81.0,">80",3.0,"WHITE",1.0,"F","Y","Y","Y","Week 24",24.0,"WEEK 24",12.0,173.0,"2013-04-18","Ideational Praxis","ACITM06",6.0,0.0,0.0,0.0,null,null,"Y",null,">140",168.0,5.0,141.0,null,"DAYS",5051.0],["CDISCPILOT01","701","701","01-701-1133","2012-10-28","2013-04-28","Xanomeline High Dose",81.0,81.0,">80",3.0,"WHITE",1.0,"F","Y","Y","Y","Week 8",8.0,"WEEK 8",8.0,58.0,"2012-12-24","Orientation","ACITM07",7.0,4.0,2.0,2.0,100.0,null,"Y",null,"2-84",56.0,2.0,2.0,84.0,"DAYS",5022.0],["CDISCPILOT01","701","701","01-701-1133","2012-10-28","2013-04-28","Xanomeline High Dose",81.0,81.0,">80",3.0,"WHITE",1.0,"F","Y","Y","Y","Week 16",16.0,"WEEK 16",10.0,114.0,"2013-02-18","Orientation","ACITM07",7.0,5.0,2.0,3.0,150.0,null,"Y",null,"85-140",112.0,2.0,85.0,140.0,"DAYS",5037.0],["CDISCPILOT01","701","701","01-701-1133","2012-10-28","2013-04-28","Xanomeline High Dose",81.0,81.0,">80",3.0,"WHITE",1.0,"F","Y","Y","Y","Week 24",24.0,"WEEK 24",12.0,173.0,"2013-04-18","Orientation","ACITM07",7.0,4.0,2.0,2.0,100.0,null,"Y",null,">140",168.0,5.0,141.0,null,"DAYS",5052.0],["CDISCPILOT01","701","701","01-701-1133","2012-10-28","2013-04-28","Xanomeline High Dose",81.0,81.0,">80",3.0,"WHITE",1.0,"F","Y","Y","Y","Week 8",8.0,"WEEK 8",8.0,58.0,"2012-12-24","Word Recognition","ACITM08",8.0,3.0,2.0,1.0,50.0,null,"Y",null,"2-84",56.0,2.0,2.0,84.0,"DAYS",5023.0],["CDISCPILOT01","701","701","01-701-1133","2012-10-28","2013-04-28","Xanomeline High Dose",81.0,81.0,">80",3.0,"WHITE",1.0,"F","Y","Y","Y","Week 16",16.0,"WEEK 16",10.0,114.0,"2013-02-18","Word Recognition","ACITM08",8.0,5.0,2.0,3.0,150.0,null,"Y",null,"85-140",112.0,2.0,85.0,140.0,"DAYS",5038.0],["CDISCPILOT01","701","701","01-701-1133","2012-10-28","2013-04-28","Xanomeline High Dose",81.0,81.0,">80",3.0,"WHITE",1.0,"F","Y","Y","Y","Week 24",24.0,"WEEK 24",12.0,173.0,"2013-04-18","Word Recognition","ACITM08",8.0,4.0,2.0,2.0,100.0,null,"Y",null,">140",168.0,5.0,141.0,null,"DAYS",5053.0],["CDISCPILOT01","701","701","01-701-1133","2012-10-28","2013-04-28","Xanomeline High Dose",81.0,81.0,">80",3.0,"WHITE",1.0,"F","Y","Y","Y","Week 8",8.0,"WEEK 8",8.0,58.0,"2012-12-24","Attention/Visual Search Task","ACITM09",9.0,22.0,24.0,-2.0,-8.333333333333332,null,"Y",null,"2-84",56.0,2.0,2.0,84.0,"DAYS",5024.0],["CDISCPILOT01","701","701","01-701-1133","2012-10-28","2013-04-28","Xanomeline High Dose",81.0,81.0,">80",3.0,"WHITE",1.0,"F","Y","Y","Y","Week 16",16.0,"WEEK 16",10.0,114.0,"2013-02-18","Attention/Visual Search Task","ACITM09",9.0,21.0,24.0,-3.0,-12.5,null,"Y",null,"85-140",112.0,2.0,85.0,140.0,"DAYS",5039.0],["CDISCPILOT01","701","701","01-701-1133","2012-10-28","2013-04-28","Xanomeline High Dose",81.0,81.0,">80",3.0,"WHITE",1.0,"F","Y","Y","Y","Week 24",24.0,"WEEK 24",12.0,173.0,"2013-04-18","Attention/Visual Search Task","ACITM09",9.0,22.0,24.0,-2.0,-8.333333333333332,null,"Y",null,">140",168.0,5.0,141.0,null,"DAYS",5054.0],["CDISCPILOT01","701","701","01-701-1133","2012-10-28","2013-04-28","Xanomeline High Dose",81.0,81.0,">80",3.0,"WHITE",1.0,"F","Y","Y","Y","Week 8",8.0,"WEEK 8",8.0,58.0,"2012-12-24","Maze Solution","ACITM10",10.0,240.0,12.0,228.0,1900.0,null,"Y",null,"2-84",56.0,2.0,2.0,84.0,"DAYS",5025.0],["CDISCPILOT01","701","701","01-701-1133","2012-10-28","2013-04-28","Xanomeline High Dose",81.0,81.0,">80",3.0,"WHITE",1.0,"F","Y","Y","Y","Week 16",16.0,"WEEK 16",10.0,114.0,"2013-02-18","Maze Solution","ACITM10",10.0,16.0,12.0,4.0,33.33333333333333,null,"Y",null,"85-140",112.0,2.0,85.0,140.0,"DAYS",5040.0],["CDISCPILOT01","701","701","01-701-1133","2012-10-28","2013-04-28","Xanomeline High Dose",81.0,81.0,">80",3.0,"WHITE",1.0,"F","Y","Y","Y","Week 24",24.0,"WEEK 24",12.0,173.0,"2013-04-18","Maze Solution","ACITM10",10.0,14.0,12.0,2.0,16.666666666666664,null,"Y",null,">140",168.0,5.0,141.0,null,"DAYS",5055.0],["CDISCPILOT01","701","701","01-701-1133","2012-10-28","2013-04-28","Xanomeline High Dose",81.0,81.0,">80",3.0,"WHITE",1.0,"F","Y","Y","Y","Week 8",8.0,"WEEK 8",8.0,58.0,"2012-12-24","Spoken Language Ability","ACITM11",11.0,1.0,0.0,1.0,null,null,"Y",null,"2-84",56.0,2.0,2.0,84.0,"DAYS",5026.0],["CDISCPILOT01","701","701","01-701-1133","2012-10-28","2013-04-28","Xanomeline High Dose",81.0,81.0,">80",3.0,"WHITE",1.0,"F","Y","Y","Y","Week 16",16.0,"WEEK 16",10.0,114.0,"2013-02-18","Spoken Language Ability","ACITM11",11.0,1.0,0.0,1.0,null,null,"Y",null,"85-140",112.0,2.0,85.0,140.0,"DAYS",5041.0],["CDISCPILOT01","701","701","01-701-1133","2012-10-28","2013-04-28","Xanomeline High Dose",81.0,81.0,">80",3.0,"WHITE",1.0,"F","Y","Y","Y","Week 24",24.0,"WEEK 24",12.0,173.0,"2013-04-18","Spoken Language Ability","ACITM11",11.0,0.0,0.0,0.0,null,null,"Y",null,">140",168.0,5.0,141.0,null,"DAYS",5056.0],["CDISCPILOT01","701","701","01-701-1133","2012-10-28","2013-04-28","Xanomeline High Dose",81.0,81.0,">80",3.0,"WHITE",1.0,"F","Y","Y","Y","Week 8",8.0,"WEEK 8",8.0,58.0,"2012-12-24","Comprehension Of Spoken Language","ACITM12",12.0,2.0,0.0,2.0,null,null,"Y",null,"2-84",56.0,2.0,2.0,84.0,"DAYS",5027.0],["CDISCPILOT01","701","701","01-701-1133","2012-10-28","2013-04-28","Xanomeline High Dose",81.0,81.0,">80",3.0,"WHITE",1.0,"F","Y","Y","Y","Week 16",16.0,"WEEK 16",10.0,114.0,"2013-02-18","Comprehension Of Spoken Language","ACITM12",12.0,2.0,0.0,2.0,null,null,"Y",null,"85-140",112.0,2.0,85.0,140.0,"DAYS",5042.0],["CDISCPILOT01","701","701","01-701-1133","2012-10-28","2013-04-28","Xanomeline High Dose",81.0,81.0,">80",3.0,"WHITE",1.0,"F","Y","Y","Y","Week 24",24.0,"WEEK 24",12.0,173.0,"2013-04-18","Comprehension Of Spoken Language","ACITM12",12.0,0.0,0.0,0.0,null,null,"Y",null,">140",168.0,5.0,141.0,null,"DAYS",5057.0],["CDISCPILOT01","701","701","01-701-1133","2012-10-28","2013-04-28","Xanomeline High Dose",81.0,81.0,">80",3.0,"WHITE",1.0,"F","Y","Y","Y","Week 8",8.0,"WEEK 8",8.0,58.0,"2012-12-24","Word Finding Difficulty In Spontaneous S","ACITM13",13.0,1.0,1.0,0.0,0.0,null,"Y",null,"2-84",56.0,2.0,2.0,84.0,"DAYS",5028.0],["CDISCPILOT01","701","701","01-701-1133","2012-10-28","2013-04-28","Xanomeline High Dose",81.0,81.0,">80",3.0,"WHITE",1.0,"F","Y","Y","Y","Week 16",16.0,"WEEK 16",10.0,114.0,"2013-02-18","Word Finding Difficulty In Spontaneous S","ACITM13",13.0,1.0,1.0,0.0,0.0,null,"Y",null,"85-140",112.0,2.0,85.0,140.0,"DAYS",5043.0],["CDISCPILOT01","701","701","01-701-1133","2012-10-28","2013-04-28","Xanomeline High Dose",81.0,81.0,">80",3.0,"WHITE",1.0,"F","Y","Y","Y","Week 24",24.0,"WEEK 24",12.0,173.0,"2013-04-18","Word Finding Difficulty In Spontaneous S","ACITM13",13.0,0.0,1.0,-1.0,-100.0,null,"Y",null,">140",168.0,5.0,141.0,null,"DAYS",5058.0],["CDISCPILOT01","701","701","01-701-1133","2012-10-28","2013-04-28","Xanomeline High Dose",81.0,81.0,">80",3.0,"WHITE",1.0,"F","Y","Y","Y","Week 8",8.0,"WEEK 8",8.0,58.0,"2012-12-24","Recall Of Test Instructions","ACITM14",14.0,2.0,0.0,2.0,null,null,"Y",null,"2-84",56.0,2.0,2.0,84.0,"DAYS",5029.0],["CDISCPILOT01","701","701","01-701-1133","2012-10-28","2013-04-28","Xanomeline High Dose",81.0,81.0,">80",3.0,"WHITE",1.0,"F","Y","Y","Y","Week 16",16.0,"WEEK 16",10.0,114.0,"2013-02-18","Recall Of Test Instructions","ACITM14",14.0,1.0,0.0,1.0,null,null,"Y",null,"85-140",112.0,2.0,85.0,140.0,"DAYS",5044.0],["CDISCPILOT01","701","701","01-701-1133","2012-10-28","2013-04-28","Xanomeline High Dose",81.0,81.0,">80",3.0,"WHITE",1.0,"F","Y","Y","Y","Week 24",24.0,"WEEK 24",12.0,173.0,"2013-04-18","Recall Of Test Instructions","ACITM14",14.0,0.0,0.0,0.0,null,null,"Y",null,">140",168.0,5.0,141.0,null,"DAYS",5059.0],["CDISCPILOT01","701","701","01-701-1133","2012-10-28","2013-04-28","Xanomeline High Dose",81.0,81.0,">80",3.0,"WHITE",1.0,"F","Y","Y","Y","Week 8",8.0,"WEEK 8",8.0,58.0,"2012-12-24","Adas-Cog(11) Subscore","ACTOT",15.0,20.0,13.0,7.0,53.84615384615385,null,"Y",null,"2-84",56.0,2.0,2.0,84.0,"DAYS",5030.0],["CDISCPILOT01","701","701","01-701-1133","2012-10-28","2013-04-28","Xanomeline High Dose",81.0,81.0,">80",3.0,"WHITE",1.0,"F","Y","Y","Y","Week 16",16.0,"WEEK 16",10.0,114.0,"2013-02-18","Adas-Cog(11) Subscore","ACTOT",15.0,22.0,13.0,9.0,69.23076923076923,null,"Y",null,"85-140",112.0,2.0,85.0,140.0,"DAYS",5045.0],["CDISCPILOT01","701","701","01-701-1133","2012-10-28","2013-04-28","Xanomeline High Dose",81.0,81.0,">80",3.0,"WHITE",1.0,"F","Y","Y","Y","Week 24",24.0,"WEEK 24",12.0,173.0,"2013-04-18","Adas-Cog(11) Subscore","ACTOT",15.0,18.0,13.0,5.0,38.46153846153847,null,"Y",null,">140",168.0,5.0,141.0,null,"DAYS",5060.0],["CDISCPILOT01","701","701","01-701-1146","2013-05-20","2013-06-26","Xanomeline High Dose",81.0,75.0,"65-80",2.0,"WHITE",1.0,"F","Y","Y","N","Week 8",8.0,"WEEK 6",7.0,42.0,"2013-06-30","Word Recall Task","ACITM01",1.0,4.0,5.0,-1.0,-20.0,null,"Y",null,"2-84",56.0,14.0,2.0,84.0,"DAYS",5016.0],["CDISCPILOT01","701","701","01-701-1146","2013-05-20","2013-06-26","Xanomeline High Dose",81.0,75.0,"65-80",2.0,"WHITE",1.0,"F","Y","Y","N","Week 8",8.0,"WEEK 6",7.0,42.0,"2013-06-30","Naming Objects And Fingers (Refer To 5 C","ACITM02",2.0,0.0,0.0,0.0,null,null,"Y",null,"2-84",56.0,14.0,2.0,84.0,"DAYS",5017.0],["CDISCPILOT01","701","701","01-701-1146","2013-05-20","2013-06-26","Xanomeline High Dose",81.0,75.0,"65-80",2.0,"WHITE",1.0,"F","Y","Y","N","Week 8",8.0,"WEEK 6",7.0,42.0,"2013-06-30","Delayed Word Recall","ACITM03",3.0,9.0,9.0,0.0,0.0,null,"Y",null,"2-84",56.0,14.0,2.0,84.0,"DAYS",5018.0],["CDISCPILOT01","701","701","01-701-1146","2013-05-20","2013-06-26","Xanomeline High Dose",81.0,75.0,"65-80",2.0,"WHITE",1.0,"F","Y","Y","N","Week 8",8.0,"WEEK 6",7.0,42.0,"2013-06-30","Commands","ACITM04",4.0,0.0,0.0,0.0,null,null,"Y",null,"2-84",56.0,14.0,2.0,84.0,"DAYS",5019.0],["CDISCPILOT01","701","701","01-701-1146","2013-05-20","2013-06-26","Xanomeline High Dose",81.0,75.0,"65-80",2.0,"WHITE",1.0,"F","Y","Y","N","Week 8",8.0,"WEEK 6",7.0,42.0,"2013-06-30","Constructional Praxis","ACITM05",5.0,0.0,0.0,0.0,null,null,"Y",null,"2-84",56.0,14.0,2.0,84.0,"DAYS",5020.0],["CDISCPILOT01","701","701","01-701-1146","2013-05-20","2013-06-26","Xanomeline High Dose",81.0,75.0,"65-80",2.0,"WHITE",1.0,"F","Y","Y","N","Week 8",8.0,"WEEK 6",7.0,42.0,"2013-06-30","Ideational Praxis","ACITM06",6.0,1.0,1.0,0.0,0.0,null,"Y",null,"2-84",56.0,14.0,2.0,84.0,"DAYS",5021.0],["CDISCPILOT01","701","701","01-701-1146","2013-05-20","2013-06-26","Xanomeline High Dose",81.0,75.0,"65-80",2.0,"WHITE",1.0,"F","Y","Y","N","Week 8",8.0,"WEEK 6",7.0,42.0,"2013-06-30","Orientation","ACITM07",7.0,0.0,0.0,0.0,null,null,"Y",null,"2-84",56.0,14.0,2.0,84.0,"DAYS",5022.0],["CDISCPILOT01","701","701","01-701-1146","2013-05-20","2013-06-26","Xanomeline High Dose",81.0,75.0,"65-80",2.0,"WHITE",1.0,"F","Y","Y","N","Week 8",8.0,"WEEK 6",7.0,42.0,"2013-06-30","Word Recognition","ACITM08",8.0,3.0,4.0,-1.0,-25.0,null,"Y",null,"2-84",56.0,14.0,2.0,84.0,"DAYS",5023.0],["CDISCPILOT01","701","701","01-701-1146","2013-05-20","2013-06-26","Xanomeline High Dose",81.0,75.0,"65-80",2.0,"WHITE",1.0,"F","Y","Y","N","Week 8",8.0,"WEEK 6",7.0,42.0,"2013-06-30","Attention/Visual Search Task","ACITM09",9.0,19.0,17.0,2.0,11.76470588235294,null,"Y",null,"2-84",56.0,14.0,2.0,84.0,"DAYS",5024.0],["CDISCPILOT01","701","701","01-701-1146","2013-05-20","2013-06-26","Xanomeline High Dose",81.0,75.0,"65-80",2.0,"WHITE",1.0,"F","Y","Y","N","Week 8",8.0,"WEEK 6",7.0,42.0,"2013-06-30","Maze Solution","ACITM10",10.0,13.0,3.0,10.0,333.33333333333337,null,"Y",null,"2-84",56.0,14.0,2.0,84.0,"DAYS",5025.0],["CDISCPILOT01","701","701","01-701-1146","2013-05-20","2013-06-26","Xanomeline High Dose",81.0,75.0,"65-80",2.0,"WHITE",1.0,"F","Y","Y","N","Week 8",8.0,"WEEK 6",7.0,42.0,"2013-06-30","Spoken Language Ability","ACITM11",11.0,0.0,1.0,-1.0,-100.0,null,"Y",null,"2-84",56.0,14.0,2.0,84.0,"DAYS",5026.0],["CDISCPILOT01","701","701","01-701-1146","2013-05-20","2013-06-26","Xanomeline High Dose",81.0,75.0,"65-80",2.0,"WHITE",1.0,"F","Y","Y","N","Week 8",8.0,"WEEK 6",7.0,42.0,"2013-06-30","Comprehension Of Spoken Language","ACITM12",12.0,0.0,0.0,0.0,null,null,"Y",null,"2-84",56.0,14.0,2.0,84.0,"DAYS",5027.0],["CDISCPILOT01","701","701","01-701-1146","2013-05-20","2013-06-26","Xanomeline High Dose",81.0,75.0,"65-80",2.0,"WHITE",1.0,"F","Y","Y","N","Week 8",8.0,"WEEK 6",7.0,42.0,"2013-06-30","Word Finding Difficulty In Spontaneous S","ACITM13",13.0,0.0,0.0,0.0,null,null,"Y",null,"2-84",56.0,14.0,2.0,84.0,"DAYS",5028.0],["CDISCPILOT01","701","701","01-701-1146","2013-05-20","2013-06-26","Xanomeline High Dose",81.0,75.0,"65-80",2.0,"WHITE",1.0,"F","Y","Y","N","Week 8",8.0,"WEEK 6",7.0,42.0,"2013-06-30","Recall Of Test Instructions","ACITM14",14.0,2.0,0.0,2.0,null,null,"Y",null,"2-84",56.0,14.0,2.0,84.0,"DAYS",5029.0],["CDISCPILOT01","701","701","01-701-1146","2013-05-20","2013-06-26","Xanomeline High Dose",81.0,75.0,"65-80",2.0,"WHITE",1.0,"F","Y","Y","N","Week 8",8.0,"WEEK 6",7.0,42.0,"2013-06-30","Adas-Cog(11) Subscore","ACTOT",15.0,10.0,11.0,-1.0,-9.090909090909092,null,"Y",null,"2-84",56.0,14.0,2.0,84.0,"DAYS",5030.0],["CDISCPILOT01","701","701","01-701-1146","2013-05-20","2013-06-26","Xanomeline High Dose",81.0,75.0,"65-80",2.0,"WHITE",1.0,"F","Y","Y","N","Week 16",16.0,"WEEK 6",7.0,42.0,"2013-06-30","Adas-Cog(11) Subscore","ACTOT",15.0,10.0,11.0,-1.0,-9.090909090909092,null,"Y","LOCF","85-140",112.0,70.0,85.0,140.0,"DAYS",5030.0],["CDISCPILOT01","701","701","01-701-1146","2013-05-20","2013-06-26","Xanomeline High Dose",81.0,75.0,"65-80",2.0,"WHITE",1.0,"F","Y","Y","N","Week 24",24.0,"WEEK 6",7.0,42.0,"2013-06-30","Adas-Cog(11) Subscore","ACTOT",15.0,10.0,11.0,-1.0,-9.090909090909092,null,"Y","LOCF",">140",168.0,126.0,141.0,null,"DAYS",5030.0],["CDISCPILOT01","701","701","01-701-1148","2013-08-23","2014-02-20","Xanomeline High Dose",81.0,57.0,"<65",1.0,"WHITE",1.0,"M","Y","Y","Y","Week 8",8.0,"WEEK 8",8.0,57.0,"2013-10-18","Word Recall Task","ACITM01",1.0,4.0,4.0,0.0,0.0,null,"Y",null,"2-84",56.0,1.0,2.0,84.0,"DAYS",5016.0],["CDISCPILOT01","701","701","01-701-1148","2013-08-23","2014-02-20","Xanomeline High Dose",81.0,57.0,"<65",1.0,"WHITE",1.0,"M","Y","Y","Y","Week 16",16.0,"WEEK 16",10.0,113.0,"2013-12-13","Word Recall Task","ACITM01",1.0,4.0,4.0,0.0,0.0,null,"Y",null,"85-140",112.0,1.0,85.0,140.0,"DAYS",5031.0],["CDISCPILOT01","701","701","01-701-1148","2013-08-23","2014-02-20","Xanomeline High Dose",81.0,57.0,"<65",1.0,"WHITE",1.0,"M","Y","Y","Y","Week 24",24.0,"WEEK 24",12.0,170.0,"2014-02-08","Word Recall Task","ACITM01",1.0,6.0,4.0,2.0,50.0,null,"Y",null,">140",168.0,2.0,141.0,null,"DAYS",5046.0],["CDISCPILOT01","701","701","01-701-1148","2013-08-23","2014-02-20","Xanomeline High Dose",81.0,57.0,"<65",1.0,"WHITE",1.0,"M","Y","Y","Y","Week 8",8.0,"WEEK 8",8.0,57.0,"2013-10-18","Naming Objects And Fingers (Refer To 5 C","ACITM02",2.0,0.0,0.0,0.0,null,null,"Y",null,"2-84",56.0,1.0,2.0,84.0,"DAYS",5017.0],["CDISCPILOT01","701","701","01-701-1148","2013-08-23","2014-02-20","Xanomeline High Dose",81.0,57.0,"<65",1.0,"WHITE",1.0,"M","Y","Y","Y","Week 16",16.0,"WEEK 16",10.0,113.0,"2013-12-13","Naming Objects And Fingers (Refer To 5 C","ACITM02",2.0,0.0,0.0,0.0,null,null,"Y",null,"85-140",112.0,1.0,85.0,140.0,"DAYS",5032.0],["CDISCPILOT01","701","701","01-701-1148","2013-08-23","2014-02-20","Xanomeline High Dose",81.0,57.0,"<65",1.0,"WHITE",1.0,"M","Y","Y","Y","Week 24",24.0,"WEEK 24",12.0,170.0,"2014-02-08","Naming Objects And Fingers (Refer To 5 C","ACITM02",2.0,0.0,0.0,0.0,null,null,"Y",null,">140",168.0,2.0,141.0,null,"DAYS",5047.0],["CDISCPILOT01","701","701","01-701-1148","2013-08-23","2014-02-20","Xanomeline High Dose",81.0,57.0,"<65",1.0,"WHITE",1.0,"M","Y","Y","Y","Week 8",8.0,"WEEK 8",8.0,57.0,"2013-10-18","Delayed Word Recall","ACITM03",3.0,3.0,3.0,0.0,0.0,null,"Y",null,"2-84",56.0,1.0,2.0,84.0,"DAYS",5018.0],["CDISCPILOT01","701","701","01-701-1148","2013-08-23","2014-02-20","Xanomeline High Dose",81.0,57.0,"<65",1.0,"WHITE",1.0,"M","Y","Y","Y","Week 16",16.0,"WEEK 16",10.0,113.0,"2013-12-13","Delayed Word Recall","ACITM03",3.0,4.0,3.0,1.0,33.33333333333333,null,"Y",null,"85-140",112.0,1.0,85.0,140.0,"DAYS",5033.0],["CDISCPILOT01","701","701","01-701-1148","2013-08-23","2014-02-20","Xanomeline High Dose",81.0,57.0,"<65",1.0,"WHITE",1.0,"M","Y","Y","Y","Week 24",24.0,"WEEK 24",12.0,170.0,"2014-02-08","Delayed Word Recall","ACITM03",3.0,5.0,3.0,2.0,66.66666666666666,null,"Y",null,">140",168.0,2.0,141.0,null,"DAYS",5048.0],["CDISCPILOT01","701","701","01-701-1148","2013-08-23","2014-02-20","Xanomeline High Dose",81.0,57.0,"<65",1.0,"WHITE",1.0,"M","Y","Y","Y","Week 8",8.0,"WEEK 8",8.0,57.0,"2013-10-18","Commands","ACITM04",4.0,0.0,0.0,0.0,null,null,"Y",null,"2-84",56.0,1.0,2.0,84.0,"DAYS",5019.0],["CDISCPILOT01","701","701","01-701-1148","2013-08-23","2014-02-20","Xanomeline High Dose",81.0,57.0,"<65",1.0,"WHITE",1.0,"M","Y","Y","Y","Week 16",16.0,"WEEK 16",10.0,113.0,"2013-12-13","Commands","ACITM04",4.0,0.0,0.0,0.0,null,null,"Y",null,"85-140",112.0,1.0,85.0,140.0,"DAYS",5034.0],["CDISCPILOT01","701","701","01-701-1148","2013-08-23","2014-02-20","Xanomeline High Dose",81.0,57.0,"<65",1.0,"WHITE",1.0,"M","Y","Y","Y","Week 24",24.0,"WEEK 24",12.0,170.0,"2014-02-08","Commands","ACITM04",4.0,0.0,0.0,0.0,null,null,"Y",null,">140",168.0,2.0,141.0,null,"DAYS",5049.0],["CDISCPILOT01","701","701","01-701-1148","2013-08-23","2014-02-20","Xanomeline High Dose",81.0,57.0,"<65",1.0,"WHITE",1.0,"M","Y","Y","Y","Week 8",8.0,"WEEK 8",8.0,57.0,"2013-10-18","Constructional Praxis","ACITM05",5.0,1.0,0.0,1.0,null,null,"Y",null,"2-84",56.0,1.0,2.0,84.0,"DAYS",5020.0],["CDISCPILOT01","701","701","01-701-1148","2013-08-23","2014-02-20","Xanomeline High Dose",81.0,57.0,"<65",1.0,"WHITE",1.0,"M","Y","Y","Y","Week 16",16.0,"WEEK 16",10.0,113.0,"2013-12-13","Constructional Praxis","ACITM05",5.0,2.0,0.0,2.0,null,null,"Y",null,"85-140",112.0,1.0,85.0,140.0,"DAYS",5035.0],["CDISCPILOT01","701","701","01-701-1148","2013-08-23","2014-02-20","Xanomeline High Dose",81.0,57.0,"<65",1.0,"WHITE",1.0,"M","Y","Y","Y","Week 24",24.0,"WEEK 24",12.0,170.0,"2014-02-08","Constructional Praxis","ACITM05",5.0,1.0,0.0,1.0,null,null,"Y",null,">140",168.0,2.0,141.0,null,"DAYS",5050.0],["CDISCPILOT01","701","701","01-701-1148","2013-08-23","2014-02-20","Xanomeline High Dose",81.0,57.0,"<65",1.0,"WHITE",1.0,"M","Y","Y","Y","Week 8",8.0,"WEEK 8",8.0,57.0,"2013-10-18","Ideational Praxis","ACITM06",6.0,0.0,0.0,0.0,null,null,"Y",null,"2-84",56.0,1.0,2.0,84.0,"DAYS",5021.0],["CDISCPILOT01","701","701","01-701-1148","2013-08-23","2014-02-20","Xanomeline High Dose",81.0,57.0,"<65",1.0,"WHITE",1.0,"M","Y","Y","Y","Week 16",16.0,"WEEK 16",10.0,113.0,"2013-12-13","Ideational Praxis","ACITM06",6.0,0.0,0.0,0.0,null,null,"Y",null,"85-140",112.0,1.0,85.0,140.0,"DAYS",5036.0],["CDISCPILOT01","701","701","01-701-1148","2013-08-23","2014-02-20","Xanomeline High Dose",81.0,57.0,"<65",1.0,"WHITE",1.0,"M","Y","Y","Y","Week 24",24.0,"WEEK 24",12.0,170.0,"2014-02-08","Ideational Praxis","ACITM06",6.0,0.0,0.0,0.0,null,null,"Y",null,">140",168.0,2.0,141.0,null,"DAYS",5051.0],["CDISCPILOT01","701","701","01-701-1148","2013-08-23","2014-02-20","Xanomeline High Dose",81.0,57.0,"<65",1.0,"WHITE",1.0,"M","Y","Y","Y","Week 8",8.0,"WEEK 8",8.0,57.0,"2013-10-18","Orientation","ACITM07",7.0,0.0,0.0,0.0,null,null,"Y",null,"2-84",56.0,1.0,2.0,84.0,"DAYS",5022.0],["CDISCPILOT01","701","701","01-701-1148","2013-08-23","2014-02-20","Xanomeline High Dose",81.0,57.0,"<65",1.0,"WHITE",1.0,"M","Y","Y","Y","Week 16",16.0,"WEEK 16",10.0,113.0,"2013-12-13","Orientation","ACITM07",7.0,0.0,0.0,0.0,null,null,"Y",null,"85-140",112.0,1.0,85.0,140.0,"DAYS",5037.0],["CDISCPILOT01","701","701","01-701-1148","2013-08-23","2014-02-20","Xanomeline High Dose",81.0,57.0,"<65",1.0,"WHITE",1.0,"M","Y","Y","Y","Week 24",24.0,"WEEK 24",12.0,170.0,"2014-02-08","Orientation","ACITM07",7.0,0.0,0.0,0.0,null,null,"Y",null,">140",168.0,2.0,141.0,null,"DAYS",5052.0],["CDISCPILOT01","701","701","01-701-1148","2013-08-23","2014-02-20","Xanomeline High Dose",81.0,57.0,"<65",1.0,"WHITE",1.0,"M","Y","Y","Y","Week 8",8.0,"WEEK 8",8.0,57.0,"2013-10-18","Word Recognition","ACITM08",8.0,1.0,1.0,0.0,0.0,null,"Y",null,"2-84",56.0,1.0,2.0,84.0,"DAYS",5023.0],["CDISCPILOT01","701","701","01-701-1148","2013-08-23","2014-02-20","Xanomeline High Dose",81.0,57.0,"<65",1.0,"WHITE",1.0,"M","Y","Y","Y","Week 16",16.0,"WEEK 16",10.0,113.0,"2013-12-13","Word Recognition","ACITM08",8.0,0.0,1.0,-1.0,-100.0,null,"Y",null,"85-140",112.0,1.0,85.0,140.0,"DAYS",5038.0],["CDISCPILOT01","701","701","01-701-1148","2013-08-23","2014-02-20","Xanomeline High Dose",81.0,57.0,"<65",1.0,"WHITE",1.0,"M","Y","Y","Y","Week 24",24.0,"WEEK 24",12.0,170.0,"2014-02-08","Word Recognition","ACITM08",8.0,0.0,1.0,-1.0,-100.0,null,"Y",null,">140",168.0,2.0,141.0,null,"DAYS",5053.0],["CDISCPILOT01","701","701","01-701-1148","2013-08-23","2014-02-20","Xanomeline High Dose",81.0,57.0,"<65",1.0,"WHITE",1.0,"M","Y","Y","Y","Week 8",8.0,"WEEK 8",8.0,57.0,"2013-10-18","Attention/Visual Search Task","ACITM09",9.0,27.0,29.0,-2.0,-6.896551724137931,null,"Y",null,"2-84",56.0,1.0,2.0,84.0,"DAYS",5024.0],["CDISCPILOT01","701","701","01-701-1148","2013-08-23","2014-02-20","Xanomeline High Dose",81.0,57.0,"<65",1.0,"WHITE",1.0,"M","Y","Y","Y","Week 16",16.0,"WEEK 16",10.0,113.0,"2013-12-13","Attention/Visual Search Task","ACITM09",9.0,34.0,29.0,5.0,17.24137931034483,null,"Y",null,"85-140",112.0,1.0,85.0,140.0,"DAYS",5039.0],["CDISCPILOT01","701","701","01-701-1148","2013-08-23","2014-02-20","Xanomeline High Dose",81.0,57.0,"<65",1.0,"WHITE",1.0,"M","Y","Y","Y","Week 24",24.0,"WEEK 24",12.0,170.0,"2014-02-08","Attention/Visual Search Task","ACITM09",9.0,39.0,29.0,10.0,34.48275862068966,null,"Y",null,">140",168.0,2.0,141.0,null,"DAYS",5054.0],["CDISCPILOT01","701","701","01-701-1148","2013-08-23","2014-02-20","Xanomeline High Dose",81.0,57.0,"<65",1.0,"WHITE",1.0,"M","Y","Y","Y","Week 8",8.0,"WEEK 8",8.0,57.0,"2013-10-18","Maze Solution","ACITM10",10.0,2.0,4.0,-2.0,-50.0,null,"Y",null,"2-84",56.0,1.0,2.0,84.0,"DAYS",5025.0],["CDISCPILOT01","701","701","01-701-1148","2013-08-23","2014-02-20","Xanomeline High Dose",81.0,57.0,"<65",1.0,"WHITE",1.0,"M","Y","Y","Y","Week 16",16.0,"WEEK 16",10.0,113.0,"2013-12-13","Maze Solution","ACITM10",10.0,3.0,4.0,-1.0,-25.0,null,"Y",null,"85-140",112.0,1.0,85.0,140.0,"DAYS",5040.0],["CDISCPILOT01","701","701","01-701-1148","2013-08-23","2014-02-20","Xanomeline High Dose",81.0,57.0,"<65",1.0,"WHITE",1.0,"M","Y","Y","Y","Week 24",24.0,"WEEK 24",12.0,170.0,"2014-02-08","Maze Solution","ACITM10",10.0,2.0,4.0,-2.0,-50.0,null,"Y",null,">140",168.0,2.0,141.0,null,"DAYS",5055.0],["CDISCPILOT01","701","701","01-701-1148","2013-08-23","2014-02-20","Xanomeline High Dose",81.0,57.0,"<65",1.0,"WHITE",1.0,"M","Y","Y","Y","Week 8",8.0,"WEEK 8",8.0,57.0,"2013-10-18","Spoken Language Ability","ACITM11",11.0,0.0,0.0,0.0,null,null,"Y",null,"2-84",56.0,1.0,2.0,84.0,"DAYS",5026.0],["CDISCPILOT01","701","701","01-701-1148","2013-08-23","2014-02-20","Xanomeline High Dose",81.0,57.0,"<65",1.0,"WHITE",1.0,"M","Y","Y","Y","Week 16",16.0,"WEEK 16",10.0,113.0,"2013-12-13","Spoken Language Ability","ACITM11",11.0,0.0,0.0,0.0,null,null,"Y",null,"85-140",112.0,1.0,85.0,140.0,"DAYS",5041.0],["CDISCPILOT01","701","701","01-701-1148","2013-08-23","2014-02-20","Xanomeline High Dose",81.0,57.0,"<65",1.0,"WHITE",1.0,"M","Y","Y","Y","Week 24",24.0,"WEEK 24",12.0,170.0,"2014-02-08","Spoken Language Ability","ACITM11",11.0,0.0,0.0,0.0,null,null,"Y",null,">140",168.0,2.0,141.0,null,"DAYS",5056.0],["CDISCPILOT01","701","701","01-701-1148","2013-08-23","2014-02-20","Xanomeline High Dose",81.0,57.0,"<65",1.0,"WHITE",1.0,"M","Y","Y","Y","Week 8",8.0,"WEEK 8",8.0,57.0,"2013-10-18","Comprehension Of Spoken Language","ACITM12",12.0,0.0,0.0,0.0,null,null,"Y",null,"2-84",56.0,1.0,2.0,84.0,"DAYS",5027.0],["CDISCPILOT01","701","701","01-701-1148","2013-08-23","2014-02-20","Xanomeline High Dose",81.0,57.0,"<65",1.0,"WHITE",1.0,"M","Y","Y","Y","Week 16",16.0,"WEEK 16",10.0,113.0,"2013-12-13","Comprehension Of Spoken Language","ACITM12",12.0,0.0,0.0,0.0,null,null,"Y",null,"85-140",112.0,1.0,85.0,140.0,"DAYS",5042.0],["CDISCPILOT01","701","701","01-701-1148","2013-08-23","2014-02-20","Xanomeline High Dose",81.0,57.0,"<65",1.0,"WHITE",1.0,"M","Y","Y","Y","Week 24",24.0,"WEEK 24",12.0,170.0,"2014-02-08","Comprehension Of Spoken Language","ACITM12",12.0,0.0,0.0,0.0,null,null,"Y",null,">140",168.0,2.0,141.0,null,"DAYS",5057.0],["CDISCPILOT01","701","701","01-701-1148","2013-08-23","2014-02-20","Xanomeline High Dose",81.0,57.0,"<65",1.0,"WHITE",1.0,"M","Y","Y","Y","Week 8",8.0,"WEEK 8",8.0,57.0,"2013-10-18","Word Finding Difficulty In Spontaneous S","ACITM13",13.0,0.0,0.0,0.0,null,null,"Y",null,"2-84",56.0,1.0,2.0,84.0,"DAYS",5028.0],["CDISCPILOT01","701","701","01-701-1148","2013-08-23","2014-02-20","Xanomeline High Dose",81.0,57.0,"<65",1.0,"WHITE",1.0,"M","Y","Y","Y","Week 16",16.0,"WEEK 16",10.0,113.0,"2013-12-13","Word Finding Difficulty In Spontaneous S","ACITM13",13.0,0.0,0.0,0.0,null,null,"Y",null,"85-140",112.0,1.0,85.0,140.0,"DAYS",5043.0],["CDISCPILOT01","701","701","01-701-1148","2013-08-23","2014-02-20","Xanomeline High Dose",81.0,57.0,"<65",1.0,"WHITE",1.0,"M","Y","Y","Y","Week 24",24.0,"WEEK 24",12.0,170.0,"2014-02-08","Word Finding Difficulty In Spontaneous S","ACITM13",13.0,0.0,0.0,0.0,null,null,"Y",null,">140",168.0,2.0,141.0,null,"DAYS",5058.0],["CDISCPILOT01","701","701","01-701-1148","2013-08-23","2014-02-20","Xanomeline High Dose",81.0,57.0,"<65",1.0,"WHITE",1.0,"M","Y","Y","Y","Week 8",8.0,"WEEK 8",8.0,57.0,"2013-10-18","Recall Of Test Instructions","ACITM14",14.0,0.0,0.0,0.0,null,null,"Y",null,"2-84",56.0,1.0,2.0,84.0,"DAYS",5029.0],["CDISCPILOT01","701","701","01-701-1148","2013-08-23","2014-02-20","Xanomeline High Dose",81.0,57.0,"<65",1.0,"WHITE",1.0,"M","Y","Y","Y","Week 16",16.0,"WEEK 16",10.0,113.0,"2013-12-13","Recall Of Test Instructions","ACITM14",14.0,0.0,0.0,0.0,null,null,"Y",null,"85-140",112.0,1.0,85.0,140.0,"DAYS",5044.0],["CDISCPILOT01","701","701","01-701-1148","2013-08-23","2014-02-20","Xanomeline High Dose",81.0,57.0,"<65",1.0,"WHITE",1.0,"M","Y","Y","Y","Week 24",24.0,"WEEK 24",12.0,170.0,"2014-02-08","Recall Of Test Instructions","ACITM14",14.0,0.0,0.0,0.0,null,null,"Y",null,">140",168.0,2.0,141.0,null,"DAYS",5059.0],["CDISCPILOT01","701","701","01-701-1148","2013-08-23","2014-02-20","Xanomeline High Dose",81.0,57.0,"<65",1.0,"WHITE",1.0,"M","Y","Y","Y","Week 8",8.0,"WEEK 8",8.0,57.0,"2013-10-18","Adas-Cog(11) Subscore","ACTOT",15.0,6.0,5.0,1.0,20.0,null,"Y",null,"2-84",56.0,1.0,2.0,84.0,"DAYS",5030.0],["CDISCPILOT01","701","701","01-701-1148","2013-08-23","2014-02-20","Xanomeline High Dose",81.0,57.0,"<65",1.0,"WHITE",1.0,"M","Y","Y","Y","Week 16",16.0,"WEEK 16",10.0,113.0,"2013-12-13","Adas-Cog(11) Subscore","ACTOT",15.0,6.0,5.0,1.0,20.0,null,"Y",null,"85-140",112.0,1.0,85.0,140.0,"DAYS",5045.0],["CDISCPILOT01","701","701","01-701-1148","2013-08-23","2014-02-20","Xanomeline High Dose",81.0,57.0,"<65",1.0,"WHITE",1.0,"M","Y","Y","Y","Week 24",24.0,"WEEK 24",12.0,170.0,"2014-02-08","Adas-Cog(11) Subscore","ACTOT",15.0,7.0,5.0,2.0,40.0,null,"Y",null,">140",168.0,2.0,141.0,null,"DAYS",5060.0],["CDISCPILOT01","701","701","01-701-1153","2013-09-23","2014-03-16","Placebo",0.0,79.0,"65-80",2.0,"WHITE",1.0,"F","Y","Y","Y","Week 8",8.0,"WEEK 8",8.0,57.0,"2013-11-18","Word Recall Task","ACITM01",1.0,10.0,10.0,0.0,0.0,null,"Y",null,"2-84",56.0,1.0,2.0,84.0,"DAYS",5016.0],["CDISCPILOT01","701","701","01-701-1153","2013-09-23","2014-03-16","Placebo",0.0,79.0,"65-80",2.0,"WHITE",1.0,"F","Y","Y","Y","Week 16",16.0,"WEEK 16",10.0,108.0,"2014-01-08","Word Recall Task","ACITM01",1.0,10.0,10.0,0.0,0.0,null,"Y",null,"85-140",112.0,4.0,85.0,140.0,"DAYS",5031.0],["CDISCPILOT01","701","701","01-701-1153","2013-09-23","2014-03-16","Placebo",0.0,79.0,"65-80",2.0,"WHITE",1.0,"F","Y","Y","Y","Week 24",24.0,"WEEK 24",12.0,170.0,"2014-03-11","Word Recall Task","ACITM01",1.0,10.0,10.0,0.0,0.0,null,"Y",null,">140",168.0,2.0,141.0,null,"DAYS",5046.0],["CDISCPILOT01","701","701","01-701-1153","2013-09-23","2014-03-16","Placebo",0.0,79.0,"65-80",2.0,"WHITE",1.0,"F","Y","Y","Y","Week 8",8.0,"WEEK 8",8.0,57.0,"2013-11-18","Naming Objects And Fingers (Refer To 5 C","ACITM02",2.0,4.0,4.0,0.0,0.0,null,"Y",null,"2-84",56.0,1.0,2.0,84.0,"DAYS",5017.0],["CDISCPILOT01","701","701","01-701-1153","2013-09-23","2014-03-16","Placebo",0.0,79.0,"65-80",2.0,"WHITE",1.0,"F","Y","Y","Y","Week 16",16.0,"WEEK 16",10.0,108.0,"2014-01-08","Naming Objects And Fingers (Refer To 5 C","ACITM02",2.0,5.0,4.0,1.0,25.0,null,"Y",null,"85-140",112.0,4.0,85.0,140.0,"DAYS",5032.0],["CDISCPILOT01","701","701","01-701-1153","2013-09-23","2014-03-16","Placebo",0.0,79.0,"65-80",2.0,"WHITE",1.0,"F","Y","Y","Y","Week 24",24.0,"WEEK 24",12.0,170.0,"2014-03-11","Naming Objects And Fingers (Refer To 5 C","ACITM02",2.0,4.0,4.0,0.0,0.0,null,"Y",null,">140",168.0,2.0,141.0,null,"DAYS",5047.0],["CDISCPILOT01","701","701","01-701-1153","2013-09-23","2014-03-16","Placebo",0.0,79.0,"65-80",2.0,"WHITE",1.0,"F","Y","Y","Y","Week 8",8.0,"WEEK 8",8.0,57.0,"2013-11-18","Delayed Word Recall","ACITM03",3.0,10.0,10.0,0.0,0.0,null,"Y",null,"2-84",56.0,1.0,2.0,84.0,"DAYS",5018.0],["CDISCPILOT01","701","701","01-701-1153","2013-09-23","2014-03-16","Placebo",0.0,79.0,"65-80",2.0,"WHITE",1.0,"F","Y","Y","Y","Week 16",16.0,"WEEK 16",10.0,108.0,"2014-01-08","Delayed Word Recall","ACITM03",3.0,10.0,10.0,0.0,0.0,null,"Y",null,"85-140",112.0,4.0,85.0,140.0,"DAYS",5033.0],["CDISCPILOT01","701","701","01-701-1153","2013-09-23","2014-03-16","Placebo",0.0,79.0,"65-80",2.0,"WHITE",1.0,"F","Y","Y","Y","Week 24",24.0,"WEEK 24",12.0,170.0,"2014-03-11","Delayed Word Recall","ACITM03",3.0,10.0,10.0,0.0,0.0,null,"Y",null,">140",168.0,2.0,141.0,null,"DAYS",5048.0],["CDISCPILOT01","701","701","01-701-1153","2013-09-23","2014-03-16","Placebo",0.0,79.0,"65-80",2.0,"WHITE",1.0,"F","Y","Y","Y","Week 8",8.0,"WEEK 8",8.0,57.0,"2013-11-18","Commands","ACITM04",4.0,2.0,3.0,-1.0,-33.33333333333333,null,"Y",null,"2-84",56.0,1.0,2.0,84.0,"DAYS",5019.0],["CDISCPILOT01","701","701","01-701-1153","2013-09-23","2014-03-16","Placebo",0.0,79.0,"65-80",2.0,"WHITE",1.0,"F","Y","Y","Y","Week 16",16.0,"WEEK 16",10.0,108.0,"2014-01-08","Commands","ACITM04",4.0,2.0,3.0,-1.0,-33.33333333333333,null,"Y",null,"85-140",112.0,4.0,85.0,140.0,"DAYS",5034.0],["CDISCPILOT01","701","701","01-701-1153","2013-09-23","2014-03-16","Placebo",0.0,79.0,"65-80",2.0,"WHITE",1.0,"F","Y","Y","Y","Week 24",24.0,"WEEK 24",12.0,170.0,"2014-03-11","Commands","ACITM04",4.0,1.0,3.0,-2.0,-66.66666666666666,null,"Y",null,">140",168.0,2.0,141.0,null,"DAYS",5049.0],["CDISCPILOT01","701","701","01-701-1153","2013-09-23","2014-03-16","Placebo",0.0,79.0,"65-80",2.0,"WHITE",1.0,"F","Y","Y","Y","Week 8",8.0,"WEEK 8",8.0,57.0,"2013-11-18","Constructional Praxis","ACITM05",5.0,1.0,2.0,-1.0,-50.0,null,"Y",null,"2-84",56.0,1.0,2.0,84.0,"DAYS",5020.0],["CDISCPILOT01","701","701","01-701-1153","2013-09-23","2014-03-16","Placebo",0.0,79.0,"65-80",2.0,"WHITE",1.0,"F","Y","Y","Y","Week 16",16.0,"WEEK 16",10.0,108.0,"2014-01-08","Constructional Praxis","ACITM05",5.0,2.0,2.0,0.0,0.0,null,"Y",null,"85-140",112.0,4.0,85.0,140.0,"DAYS",5035.0],["CDISCPILOT01","701","701","01-701-1153","2013-09-23","2014-03-16","Placebo",0.0,79.0,"65-80",2.0,"WHITE",1.0,"F","Y","Y","Y","Week 24",24.0,"WEEK 24",12.0,170.0,"2014-03-11","Constructional Praxis","ACITM05",5.0,2.0,2.0,0.0,0.0,null,"Y",null,">140",168.0,2.0,141.0,null,"DAYS",5050.0],["CDISCPILOT01","701","701","01-701-1153","2013-09-23","2014-03-16","Placebo",0.0,79.0,"65-80",2.0,"WHITE",1.0,"F","Y","Y","Y","Week 8",8.0,"WEEK 8",8.0,57.0,"2013-11-18","Ideational Praxis","ACITM06",6.0,0.0,1.0,-1.0,-100.0,null,"Y",null,"2-84",56.0,1.0,2.0,84.0,"DAYS",5021.0],["CDISCPILOT01","701","701","01-701-1153","2013-09-23","2014-03-16","Placebo",0.0,79.0,"65-80",2.0,"WHITE",1.0,"F","Y","Y","Y","Week 16",16.0,"WEEK 16",10.0,108.0,"2014-01-08","Ideational Praxis","ACITM06",6.0,1.0,1.0,0.0,0.0,null,"Y",null,"85-140",112.0,4.0,85.0,140.0,"DAYS",5036.0],["CDISCPILOT01","701","701","01-701-1153","2013-09-23","2014-03-16","Placebo",0.0,79.0,"65-80",2.0,"WHITE",1.0,"F","Y","Y","Y","Week 24",24.0,"WEEK 24",12.0,170.0,"2014-03-11","Ideational Praxis","ACITM06",6.0,1.0,1.0,0.0,0.0,null,"Y",null,">140",168.0,2.0,141.0,null,"DAYS",5051.0],["CDISCPILOT01","701","701","01-701-1153","2013-09-23","2014-03-16","Placebo",0.0,79.0,"65-80",2.0,"WHITE",1.0,"F","Y","Y","Y","Week 8",8.0,"WEEK 8",8.0,57.0,"2013-11-18","Orientation","ACITM07",7.0,7.0,6.0,1.0,16.666666666666664,null,"Y",null,"2-84",56.0,1.0,2.0,84.0,"DAYS",5022.0],["CDISCPILOT01","701","701","01-701-1153","2013-09-23","2014-03-16","Placebo",0.0,79.0,"65-80",2.0,"WHITE",1.0,"F","Y","Y","Y","Week 16",16.0,"WEEK 16",10.0,108.0,"2014-01-08","Orientation","ACITM07",7.0,8.0,6.0,2.0,33.33333333333333,null,"Y",null,"85-140",112.0,4.0,85.0,140.0,"DAYS",5037.0],["CDISCPILOT01","701","701","01-701-1153","2013-09-23","2014-03-16","Placebo",0.0,79.0,"65-80",2.0,"WHITE",1.0,"F","Y","Y","Y","Week 24",24.0,"WEEK 24",12.0,170.0,"2014-03-11","Orientation","ACITM07",7.0,8.0,6.0,2.0,33.33333333333333,null,"Y",null,">140",168.0,2.0,141.0,null,"DAYS",5052.0],["CDISCPILOT01","701","701","01-701-1153","2013-09-23","2014-03-16","Placebo",0.0,79.0,"65-80",2.0,"WHITE",1.0,"F","Y","Y","Y","Week 8",8.0,"WEEK 8",8.0,57.0,"2013-11-18","Word Recognition","ACITM08",8.0,12.0,10.0,2.0,20.0,null,"Y",null,"2-84",56.0,1.0,2.0,84.0,"DAYS",5023.0],["CDISCPILOT01","701","701","01-701-1153","2013-09-23","2014-03-16","Placebo",0.0,79.0,"65-80",2.0,"WHITE",1.0,"F","Y","Y","Y","Week 16",16.0,"WEEK 16",10.0,108.0,"2014-01-08","Word Recognition","ACITM08",8.0,12.0,10.0,2.0,20.0,null,"Y",null,"85-140",112.0,4.0,85.0,140.0,"DAYS",5038.0],["CDISCPILOT01","701","701","01-701-1153","2013-09-23","2014-03-16","Placebo",0.0,79.0,"65-80",2.0,"WHITE",1.0,"F","Y","Y","Y","Week 24",24.0,"WEEK 24",12.0,170.0,"2014-03-11","Word Recognition","ACITM08",8.0,11.0,10.0,1.0,10.0,null,"Y",null,">140",168.0,2.0,141.0,null,"DAYS",5053.0],["CDISCPILOT01","701","701","01-701-1153","2013-09-23","2014-03-16","Placebo",0.0,79.0,"65-80",2.0,"WHITE",1.0,"F","Y","Y","Y","Week 8",8.0,"WEEK 8",8.0,57.0,"2013-11-18","Attention/Visual Search Task","ACITM09",9.0,4.0,1.0,3.0,300.0,null,"Y",null,"2-84",56.0,1.0,2.0,84.0,"DAYS",5024.0],["CDISCPILOT01","701","701","01-701-1153","2013-09-23","2014-03-16","Placebo",0.0,79.0,"65-80",2.0,"WHITE",1.0,"F","Y","Y","Y","Week 16",16.0,"WEEK 16",10.0,108.0,"2014-01-08","Attention/Visual Search Task","ACITM09",9.0,3.0,1.0,2.0,200.0,null,"Y",null,"85-140",112.0,4.0,85.0,140.0,"DAYS",5039.0],["CDISCPILOT01","701","701","01-701-1153","2013-09-23","2014-03-16","Placebo",0.0,79.0,"65-80",2.0,"WHITE",1.0,"F","Y","Y","Y","Week 24",24.0,"WEEK 24",12.0,170.0,"2014-03-11","Attention/Visual Search Task","ACITM09",9.0,5.0,1.0,4.0,400.0,null,"Y",null,">140",168.0,2.0,141.0,null,"DAYS",5054.0],["CDISCPILOT01","701","701","01-701-1153","2013-09-23","2014-03-16","Placebo",0.0,79.0,"65-80",2.0,"WHITE",1.0,"F","Y","Y","Y","Week 8",8.0,"WEEK 8",8.0,57.0,"2013-11-18","Maze Solution","ACITM10",10.0,17.0,15.0,2.0,13.333333333333334,null,"Y",null,"2-84",56.0,1.0,2.0,84.0,"DAYS",5025.0],["CDISCPILOT01","701","701","01-701-1153","2013-09-23","2014-03-16","Placebo",0.0,79.0,"65-80",2.0,"WHITE",1.0,"F","Y","Y","Y","Week 16",16.0,"WEEK 16",10.0,108.0,"2014-01-08","Maze Solution","ACITM10",10.0,20.0,15.0,5.0,33.33333333333333,null,"Y",null,"85-140",112.0,4.0,85.0,140.0,"DAYS",5040.0],["CDISCPILOT01","701","701","01-701-1153","2013-09-23","2014-03-16","Placebo",0.0,79.0,"65-80",2.0,"WHITE",1.0,"F","Y","Y","Y","Week 24",24.0,"WEEK 24",12.0,170.0,"2014-03-11","Maze Solution","ACITM10",10.0,28.0,15.0,13.0,86.66666666666667,null,"Y",null,">140",168.0,2.0,141.0,null,"DAYS",5055.0],["CDISCPILOT01","701","701","01-701-1153","2013-09-23","2014-03-16","Placebo",0.0,79.0,"65-80",2.0,"WHITE",1.0,"F","Y","Y","Y","Week 8",8.0,"WEEK 8",8.0,57.0,"2013-11-18","Spoken Language Ability","ACITM11",11.0,2.0,2.0,0.0,0.0,null,"Y",null,"2-84",56.0,1.0,2.0,84.0,"DAYS",5026.0],["CDISCPILOT01","701","701","01-701-1153","2013-09-23","2014-03-16","Placebo",0.0,79.0,"65-80",2.0,"WHITE",1.0,"F","Y","Y","Y","Week 16",16.0,"WEEK 16",10.0,108.0,"2014-01-08","Spoken Language Ability","ACITM11",11.0,4.0,2.0,2.0,100.0,null,"Y",null,"85-140",112.0,4.0,85.0,140.0,"DAYS",5041.0],["CDISCPILOT01","701","701","01-701-1153","2013-09-23","2014-03-16","Placebo",0.0,79.0,"65-80",2.0,"WHITE",1.0,"F","Y","Y","Y","Week 24",24.0,"WEEK 24",12.0,170.0,"2014-03-11","Spoken Language Ability","ACITM11",11.0,4.0,2.0,2.0,100.0,null,"Y",null,">140",168.0,2.0,141.0,null,"DAYS",5056.0],["CDISCPILOT01","701","701","01-701-1153","2013-09-23","2014-03-16","Placebo",0.0,79.0,"65-80",2.0,"WHITE",1.0,"F","Y","Y","Y","Week 8",8.0,"WEEK 8",8.0,57.0,"2013-11-18","Comprehension Of Spoken Language","ACITM12",12.0,2.0,2.0,0.0,0.0,null,"Y",null,"2-84",56.0,1.0,2.0,84.0,"DAYS",5027.0],["CDISCPILOT01","701","701","01-701-1153","2013-09-23","2014-03-16","Placebo",0.0,79.0,"65-80",2.0,"WHITE",1.0,"F","Y","Y","Y","Week 16",16.0,"WEEK 16",10.0,108.0,"2014-01-08","Comprehension Of Spoken Language","ACITM12",12.0,3.0,2.0,1.0,50.0,null,"Y",null,"85-140",112.0,4.0,85.0,140.0,"DAYS",5042.0],["CDISCPILOT01","701","701","01-701-1153","2013-09-23","2014-03-16","Placebo",0.0,79.0,"65-80",2.0,"WHITE",1.0,"F","Y","Y","Y","Week 24",24.0,"WEEK 24",12.0,170.0,"2014-03-11","Comprehension Of Spoken Language","ACITM12",12.0,3.0,2.0,1.0,50.0,null,"Y",null,">140",168.0,2.0,141.0,null,"DAYS",5057.0],["CDISCPILOT01","701","701","01-701-1153","2013-09-23","2014-03-16","Placebo",0.0,79.0,"65-80",2.0,"WHITE",1.0,"F","Y","Y","Y","Week 8",8.0,"WEEK 8",8.0,57.0,"2013-11-18","Word Finding Difficulty In Spontaneous S","ACITM13",13.0,2.0,3.0,-1.0,-33.33333333333333,null,"Y",null,"2-84",56.0,1.0,2.0,84.0,"DAYS",5028.0],["CDISCPILOT01","701","701","01-701-1153","2013-09-23","2014-03-16","Placebo",0.0,79.0,"65-80",2.0,"WHITE",1.0,"F","Y","Y","Y","Week 16",16.0,"WEEK 16",10.0,108.0,"2014-01-08","Word Finding Difficulty In Spontaneous S","ACITM13",13.0,3.0,3.0,0.0,0.0,null,"Y",null,"85-140",112.0,4.0,85.0,140.0,"DAYS",5043.0],["CDISCPILOT01","701","701","01-701-1153","2013-09-23","2014-03-16","Placebo",0.0,79.0,"65-80",2.0,"WHITE",1.0,"F","Y","Y","Y","Week 24",24.0,"WEEK 24",12.0,170.0,"2014-03-11","Word Finding Difficulty In Spontaneous S","ACITM13",13.0,3.0,3.0,0.0,0.0,null,"Y",null,">140",168.0,2.0,141.0,null,"DAYS",5058.0],["CDISCPILOT01","701","701","01-701-1153","2013-09-23","2014-03-16","Placebo",0.0,79.0,"65-80",2.0,"WHITE",1.0,"F","Y","Y","Y","Week 8",8.0,"WEEK 8",8.0,57.0,"2013-11-18","Recall Of Test Instructions","ACITM14",14.0,5.0,5.0,0.0,0.0,null,"Y",null,"2-84",56.0,1.0,2.0,84.0,"DAYS",5029.0],["CDISCPILOT01","701","701","01-701-1153","2013-09-23","2014-03-16","Placebo",0.0,79.0,"65-80",2.0,"WHITE",1.0,"F","Y","Y","Y","Week 16",16.0,"WEEK 16",10.0,108.0,"2014-01-08","Recall Of Test Instructions","ACITM14",14.0,5.0,5.0,0.0,0.0,null,"Y",null,"85-140",112.0,4.0,85.0,140.0,"DAYS",5044.0],["CDISCPILOT01","701","701","01-701-1153","2013-09-23","2014-03-16","Placebo",0.0,79.0,"65-80",2.0,"WHITE",1.0,"F","Y","Y","Y","Week 24",24.0,"WEEK 24",12.0,170.0,"2014-03-11","Recall Of Test Instructions","ACITM14",14.0,5.0,5.0,0.0,0.0,null,"Y",null,">140",168.0,2.0,141.0,null,"DAYS",5059.0],["CDISCPILOT01","701","701","01-701-1153","2013-09-23","2014-03-16","Placebo",0.0,79.0,"65-80",2.0,"WHITE",1.0,"F","Y","Y","Y","Week 8",8.0,"WEEK 8",8.0,57.0,"2013-11-18","Adas-Cog(11) Subscore","ACTOT",15.0,47.0,48.0,-1.0,-2.083333333333333,null,"Y",null,"2-84",56.0,1.0,2.0,84.0,"DAYS",5030.0],["CDISCPILOT01","701","701","01-701-1153","2013-09-23","2014-03-16","Placebo",0.0,79.0,"65-80",2.0,"WHITE",1.0,"F","Y","Y","Y","Week 16",16.0,"WEEK 16",10.0,108.0,"2014-01-08","Adas-Cog(11) Subscore","ACTOT",15.0,55.0,48.0,7.0,14.583333333333334,null,"Y",null,"85-140",112.0,4.0,85.0,140.0,"DAYS",5045.0],["CDISCPILOT01","701","701","01-701-1153","2013-09-23","2014-03-16","Placebo",0.0,79.0,"65-80",2.0,"WHITE",1.0,"F","Y","Y","Y","Week 24",24.0,"WEEK 24",12.0,170.0,"2014-03-11","Adas-Cog(11) Subscore","ACTOT",15.0,52.0,48.0,4.0,8.333333333333332,null,"Y",null,">140",168.0,2.0,141.0,null,"DAYS",5060.0],["CDISCPILOT01","701","701","01-701-1180","2013-02-12","2013-03-18","Xanomeline High Dose",81.0,56.0,"<65",1.0,"WHITE",1.0,"M","Y","Y","N","Week 8",8.0,"WEEK 6",7.0,40.0,"2013-03-23","Word Recall Task","ACITM01",1.0,5.0,7.0,-2.0,-28.57142857142857,null,"Y",null,"2-84",56.0,16.0,2.0,84.0,"DAYS",5016.0],["CDISCPILOT01","701","701","01-701-1180","2013-02-12","2013-03-18","Xanomeline High Dose",81.0,56.0,"<65",1.0,"WHITE",1.0,"M","Y","Y","N","Week 8",8.0,"WEEK 6",7.0,40.0,"2013-03-23","Naming Objects And Fingers (Refer To 5 C","ACITM02",2.0,5.0,2.0,3.0,150.0,null,"Y",null,"2-84",56.0,16.0,2.0,84.0,"DAYS",5017.0],["CDISCPILOT01","701","701","01-701-1180","2013-02-12","2013-03-18","Xanomeline High Dose",81.0,56.0,"<65",1.0,"WHITE",1.0,"M","Y","Y","N","Week 8",8.0,"WEEK 6",7.0,40.0,"2013-03-23","Delayed Word Recall","ACITM03",3.0,9.0,8.0,1.0,12.5,null,"Y",null,"2-84",56.0,16.0,2.0,84.0,"DAYS",5018.0],["CDISCPILOT01","701","701","01-701-1180","2013-02-12","2013-03-18","Xanomeline High Dose",81.0,56.0,"<65",1.0,"WHITE",1.0,"M","Y","Y","N","Week 8",8.0,"WEEK 6",7.0,40.0,"2013-03-23","Commands","ACITM04",4.0,3.0,2.0,1.0,50.0,null,"Y",null,"2-84",56.0,16.0,2.0,84.0,"DAYS",5019.0],["CDISCPILOT01","701","701","01-701-1180","2013-02-12","2013-03-18","Xanomeline High Dose",81.0,56.0,"<65",1.0,"WHITE",1.0,"M","Y","Y","N","Week 8",8.0,"WEEK 6",7.0,40.0,"2013-03-23","Constructional Praxis","ACITM05",5.0,4.0,4.0,0.0,0.0,null,"Y",null,"2-84",56.0,16.0,2.0,84.0,"DAYS",5020.0],["CDISCPILOT01","701","701","01-701-1180","2013-02-12","2013-03-18","Xanomeline High Dose",81.0,56.0,"<65",1.0,"WHITE",1.0,"M","Y","Y","N","Week 8",8.0,"WEEK 6",7.0,40.0,"2013-03-23","Ideational Praxis","ACITM06",6.0,0.0,0.0,0.0,null,null,"Y",null,"2-84",56.0,16.0,2.0,84.0,"DAYS",5021.0],["CDISCPILOT01","701","701","01-701-1180","2013-02-12","2013-03-18","Xanomeline High Dose",81.0,56.0,"<65",1.0,"WHITE",1.0,"M","Y","Y","N","Week 8",8.0,"WEEK 6",7.0,40.0,"2013-03-23","Orientation","ACITM07",7.0,0.0,2.0,-2.0,-100.0,null,"Y",null,"2-84",56.0,16.0,2.0,84.0,"DAYS",5022.0],["CDISCPILOT01","701","701","01-701-1180","2013-02-12","2013-03-18","Xanomeline High Dose",81.0,56.0,"<65",1.0,"WHITE",1.0,"M","Y","Y","N","Week 8",8.0,"WEEK 6",7.0,40.0,"2013-03-23","Word Recognition","ACITM08",8.0,9.0,9.0,0.0,0.0,null,"Y",null,"2-84",56.0,16.0,2.0,84.0,"DAYS",5023.0],["CDISCPILOT01","701","701","01-701-1180","2013-02-12","2013-03-18","Xanomeline High Dose",81.0,56.0,"<65",1.0,"WHITE",1.0,"M","Y","Y","N","Week 8",8.0,"WEEK 6",7.0,40.0,"2013-03-23","Attention/Visual Search Task","ACITM09",9.0,9.0,16.0,-7.0,-43.75,null,"Y",null,"2-84",56.0,16.0,2.0,84.0,"DAYS",5024.0],["CDISCPILOT01","701","701","01-701-1180","2013-02-12","2013-03-18","Xanomeline High Dose",81.0,56.0,"<65",1.0,"WHITE",1.0,"M","Y","Y","N","Week 8",8.0,"WEEK 6",7.0,40.0,"2013-03-23","Maze Solution","ACITM10",10.0,2.0,5.0,-3.0,-60.0,null,"Y",null,"2-84",56.0,16.0,2.0,84.0,"DAYS",5025.0],["CDISCPILOT01","701","701","01-701-1180","2013-02-12","2013-03-18","Xanomeline High Dose",81.0,56.0,"<65",1.0,"WHITE",1.0,"M","Y","Y","N","Week 8",8.0,"WEEK 6",7.0,40.0,"2013-03-23","Spoken Language Ability","ACITM11",11.0,0.0,1.0,-1.0,-100.0,null,"Y",null,"2-84",56.0,16.0,2.0,84.0,"DAYS",5026.0],["CDISCPILOT01","701","701","01-701-1180","2013-02-12","2013-03-18","Xanomeline High Dose",81.0,56.0,"<65",1.0,"WHITE",1.0,"M","Y","Y","N","Week 8",8.0,"WEEK 6",7.0,40.0,"2013-03-23","Comprehension Of Spoken Language","ACITM12",12.0,1.0,1.0,0.0,0.0,null,"Y",null,"2-84",56.0,16.0,2.0,84.0,"DAYS",5027.0],["CDISCPILOT01","701","701","01-701-1180","2013-02-12","2013-03-18","Xanomeline High Dose",81.0,56.0,"<65",1.0,"WHITE",1.0,"M","Y","Y","N","Week 8",8.0,"WEEK 6",7.0,40.0,"2013-03-23","Word Finding Difficulty In Spontaneous S","ACITM13",13.0,1.0,1.0,0.0,0.0,null,"Y",null,"2-84",56.0,16.0,2.0,84.0,"DAYS",5028.0],["CDISCPILOT01","701","701","01-701-1180","2013-02-12","2013-03-18","Xanomeline High Dose",81.0,56.0,"<65",1.0,"WHITE",1.0,"M","Y","Y","N","Week 8",8.0,"WEEK 6",7.0,40.0,"2013-03-23","Recall Of Test Instructions","ACITM14",14.0,3.0,1.0,2.0,200.0,null,"Y",null,"2-84",56.0,16.0,2.0,84.0,"DAYS",5029.0],["CDISCPILOT01","701","701","01-701-1180","2013-02-12","2013-03-18","Xanomeline High Dose",81.0,56.0,"<65",1.0,"WHITE",1.0,"M","Y","Y","N","Week 8",8.0,"WEEK 6",7.0,40.0,"2013-03-23","Adas-Cog(11) Subscore","ACTOT",15.0,31.0,30.0,1.0,3.3333333333333335,null,"Y",null,"2-84",56.0,16.0,2.0,84.0,"DAYS",5030.0],["CDISCPILOT01","701","701","01-701-1180","2013-02-12","2013-03-18","Xanomeline High Dose",81.0,56.0,"<65",1.0,"WHITE",1.0,"M","Y","Y","N","Week 16",16.0,"WEEK 6",7.0,40.0,"2013-03-23","Adas-Cog(11) Subscore","ACTOT",15.0,31.0,30.0,1.0,3.3333333333333335,null,"Y","LOCF","85-140",112.0,72.0,85.0,140.0,"DAYS",5030.0],["CDISCPILOT01","701","701","01-701-1180","2013-02-12","2013-03-18","Xanomeline High Dose",81.0,56.0,"<65",1.0,"WHITE",1.0,"M","Y","Y","N","Week 24",24.0,"WEEK 6",7.0,40.0,"2013-03-23","Adas-Cog(11) Subscore","ACTOT",15.0,31.0,30.0,1.0,3.3333333333333335,null,"Y","LOCF",">140",168.0,128.0,141.0,null,"DAYS",5030.0],["CDISCPILOT01","701","701","01-701-1181","2013-12-05","2013-12-09","Xanomeline High Dose",81.0,79.0,"65-80",2.0,"WHITE",1.0,"F","Y","Y","N","Week 8",8.0,"WEEK 2",4.0,8.0,"2013-12-12","Word Recall Task","ACITM01",1.0,9.0,7.0,2.0,28.57142857142857,null,"Y",null,"2-84",56.0,48.0,2.0,84.0,"DAYS",5016.0],["CDISCPILOT01","701","701","01-701-1181","2013-12-05","2013-12-09","Xanomeline High Dose",81.0,79.0,"65-80",2.0,"WHITE",1.0,"F","Y","Y","N","Week 24",24.0,"RETRIEVAL",201.0,170.0,"2014-05-23","Word Recall Task","ACITM01",1.0,8.0,7.0,1.0,14.285714285714285,null,"Y",null,">140",168.0,2.0,141.0,null,"DAYS",5031.0],["CDISCPILOT01","701","701","01-701-1181","2013-12-05","2013-12-09","Xanomeline High Dose",81.0,79.0,"65-80",2.0,"WHITE",1.0,"F","Y","Y","N","Week 8",8.0,"WEEK 2",4.0,8.0,"2013-12-12","Naming Objects And Fingers (Refer To 5 C","ACITM02",2.0,2.0,3.0,-1.0,-33.33333333333333,null,"Y",null,"2-84",56.0,48.0,2.0,84.0,"DAYS",5017.0],["CDISCPILOT01","701","701","01-701-1181","2013-12-05","2013-12-09","Xanomeline High Dose",81.0,79.0,"65-80",2.0,"WHITE",1.0,"F","Y","Y","N","Week 24",24.0,"RETRIEVAL",201.0,170.0,"2014-05-23","Naming Objects And Fingers (Refer To 5 C","ACITM02",2.0,3.0,3.0,0.0,0.0,null,"Y",null,">140",168.0,2.0,141.0,null,"DAYS",5032.0],["CDISCPILOT01","701","701","01-701-1181","2013-12-05","2013-12-09","Xanomeline High Dose",81.0,79.0,"65-80",2.0,"WHITE",1.0,"F","Y","Y","N","Week 8",8.0,"WEEK 2",4.0,8.0,"2013-12-12","Delayed Word Recall","ACITM03",3.0,10.0,10.0,0.0,0.0,null,"Y",null,"2-84",56.0,48.0,2.0,84.0,"DAYS",5018.0],["CDISCPILOT01","701","701","01-701-1181","2013-12-05","2013-12-09","Xanomeline High Dose",81.0,79.0,"65-80",2.0,"WHITE",1.0,"F","Y","Y","N","Week 24",24.0,"RETRIEVAL",201.0,170.0,"2014-05-23","Delayed Word Recall","ACITM03",3.0,10.0,10.0,0.0,0.0,null,"Y",null,">140",168.0,2.0,141.0,null,"DAYS",5033.0],["CDISCPILOT01","701","701","01-701-1181","2013-12-05","2013-12-09","Xanomeline High Dose",81.0,79.0,"65-80",2.0,"WHITE",1.0,"F","Y","Y","N","Week 8",8.0,"WEEK 2",4.0,8.0,"2013-12-12","Commands","ACITM04",4.0,1.0,1.0,0.0,0.0,null,"Y",null,"2-84",56.0,48.0,2.0,84.0,"DAYS",5019.0],["CDISCPILOT01","701","701","01-701-1181","2013-12-05","2013-12-09","Xanomeline High Dose",81.0,79.0,"65-80",2.0,"WHITE",1.0,"F","Y","Y","N","Week 24",24.0,"RETRIEVAL",201.0,170.0,"2014-05-23","Commands","ACITM04",4.0,1.0,1.0,0.0,0.0,null,"Y",null,">140",168.0,2.0,141.0,null,"DAYS",5034.0],["CDISCPILOT01","701","701","01-701-1181","2013-12-05","2013-12-09","Xanomeline High Dose",81.0,79.0,"65-80",2.0,"WHITE",1.0,"F","Y","Y","N","Week 8",8.0,"WEEK 2",4.0,8.0,"2013-12-12","Constructional Praxis","ACITM05",5.0,1.0,1.0,0.0,0.0,null,"Y",null,"2-84",56.0,48.0,2.0,84.0,"DAYS",5020.0],["CDISCPILOT01","701","701","01-701-1181","2013-12-05","2013-12-09","Xanomeline High Dose",81.0,79.0,"65-80",2.0,"WHITE",1.0,"F","Y","Y","N","Week 24",24.0,"RETRIEVAL",201.0,170.0,"2014-05-23","Constructional Praxis","ACITM05",5.0,1.0,1.0,0.0,0.0,null,"Y",null,">140",168.0,2.0,141.0,null,"DAYS",5035.0],["CDISCPILOT01","701","701","01-701-1181","2013-12-05","2013-12-09","Xanomeline High Dose",81.0,79.0,"65-80",2.0,"WHITE",1.0,"F","Y","Y","N","Week 8",8.0,"WEEK 2",4.0,8.0,"2013-12-12","Ideational Praxis","ACITM06",6.0,2.0,3.0,-1.0,-33.33333333333333,null,"Y",null,"2-84",56.0,48.0,2.0,84.0,"DAYS",5021.0],["CDISCPILOT01","701","701","01-701-1181","2013-12-05","2013-12-09","Xanomeline High Dose",81.0,79.0,"65-80",2.0,"WHITE",1.0,"F","Y","Y","N","Week 24",24.0,"RETRIEVAL",201.0,170.0,"2014-05-23","Ideational Praxis","ACITM06",6.0,3.0,3.0,0.0,0.0,null,"Y",null,">140",168.0,2.0,141.0,null,"DAYS",5036.0],["CDISCPILOT01","701","701","01-701-1181","2013-12-05","2013-12-09","Xanomeline High Dose",81.0,79.0,"65-80",2.0,"WHITE",1.0,"F","Y","Y","N","Week 8",8.0,"WEEK 2",4.0,8.0,"2013-12-12","Orientation","ACITM07",7.0,7.0,5.0,2.0,40.0,null,"Y",null,"2-84",56.0,48.0,2.0,84.0,"DAYS",5022.0],["CDISCPILOT01","701","701","01-701-1181","2013-12-05","2013-12-09","Xanomeline High Dose",81.0,79.0,"65-80",2.0,"WHITE",1.0,"F","Y","Y","N","Week 24",24.0,"RETRIEVAL",201.0,170.0,"2014-05-23","Orientation","ACITM07",7.0,7.0,5.0,2.0,40.0,null,"Y",null,">140",168.0,2.0,141.0,null,"DAYS",5037.0],["CDISCPILOT01","701","701","01-701-1181","2013-12-05","2013-12-09","Xanomeline High Dose",81.0,79.0,"65-80",2.0,"WHITE",1.0,"F","Y","Y","N","Week 8",8.0,"WEEK 2",4.0,8.0,"2013-12-12","Word Recognition","ACITM08",8.0,12.0,7.0,5.0,71.42857142857143,null,"Y",null,"2-84",56.0,48.0,2.0,84.0,"DAYS",5023.0],["CDISCPILOT01","701","701","01-701-1181","2013-12-05","2013-12-09","Xanomeline High Dose",81.0,79.0,"65-80",2.0,"WHITE",1.0,"F","Y","Y","N","Week 24",24.0,"RETRIEVAL",201.0,170.0,"2014-05-23","Word Recognition","ACITM08",8.0,9.0,7.0,2.0,28.57142857142857,null,"Y",null,">140",168.0,2.0,141.0,null,"DAYS",5038.0],["CDISCPILOT01","701","701","01-701-1181","2013-12-05","2013-12-09","Xanomeline High Dose",81.0,79.0,"65-80",2.0,"WHITE",1.0,"F","Y","Y","N","Week 8",8.0,"WEEK 2",4.0,8.0,"2013-12-12","Attention/Visual Search Task","ACITM09",9.0,25.0,0.0,25.0,null,null,"Y",null,"2-84",56.0,48.0,2.0,84.0,"DAYS",5024.0],["CDISCPILOT01","701","701","01-701-1181","2013-12-05","2013-12-09","Xanomeline High Dose",81.0,79.0,"65-80",2.0,"WHITE",1.0,"F","Y","Y","N","Week 24",24.0,"RETRIEVAL",201.0,170.0,"2014-05-23","Attention/Visual Search Task","ACITM09",9.0,21.0,0.0,21.0,null,null,"Y",null,">140",168.0,2.0,141.0,null,"DAYS",5039.0],["CDISCPILOT01","701","701","01-701-1181","2013-12-05","2013-12-09","Xanomeline High Dose",81.0,79.0,"65-80",2.0,"WHITE",1.0,"F","Y","Y","N","Week 8",8.0,"WEEK 2",4.0,8.0,"2013-12-12","Maze Solution","ACITM10",10.0,22.0,10.0,12.0,120.0,null,"Y",null,"2-84",56.0,48.0,2.0,84.0,"DAYS",5025.0],["CDISCPILOT01","701","701","01-701-1181","2013-12-05","2013-12-09","Xanomeline High Dose",81.0,79.0,"65-80",2.0,"WHITE",1.0,"F","Y","Y","N","Week 24",24.0,"RETRIEVAL",201.0,170.0,"2014-05-23","Maze Solution","ACITM10",10.0,8.0,10.0,-2.0,-20.0,null,"Y",null,">140",168.0,2.0,141.0,null,"DAYS",5040.0],["CDISCPILOT01","701","701","01-701-1181","2013-12-05","2013-12-09","Xanomeline High Dose",81.0,79.0,"65-80",2.0,"WHITE",1.0,"F","Y","Y","N","Week 8",8.0,"WEEK 2",4.0,8.0,"2013-12-12","Spoken Language Ability","ACITM11",11.0,0.0,1.0,-1.0,-100.0,null,"Y",null,"2-84",56.0,48.0,2.0,84.0,"DAYS",5026.0],["CDISCPILOT01","701","701","01-701-1181","2013-12-05","2013-12-09","Xanomeline High Dose",81.0,79.0,"65-80",2.0,"WHITE",1.0,"F","Y","Y","N","Week 24",24.0,"RETRIEVAL",201.0,170.0,"2014-05-23","Spoken Language Ability","ACITM11",11.0,1.0,1.0,0.0,0.0,null,"Y",null,">140",168.0,2.0,141.0,null,"DAYS",5041.0],["CDISCPILOT01","701","701","01-701-1181","2013-12-05","2013-12-09","Xanomeline High Dose",81.0,79.0,"65-80",2.0,"WHITE",1.0,"F","Y","Y","N","Week 8",8.0,"WEEK 2",4.0,8.0,"2013-12-12","Comprehension Of Spoken Language","ACITM12",12.0,1.0,1.0,0.0,0.0,null,"Y",null,"2-84",56.0,48.0,2.0,84.0,"DAYS",5027.0],["CDISCPILOT01","701","701","01-701-1181","2013-12-05","2013-12-09","Xanomeline High Dose",81.0,79.0,"65-80",2.0,"WHITE",1.0,"F","Y","Y","N","Week 24",24.0,"RETRIEVAL",201.0,170.0,"2014-05-23","Comprehension Of Spoken Language","ACITM12",12.0,1.0,1.0,0.0,0.0,null,"Y",null,">140",168.0,2.0,141.0,null,"DAYS",5042.0],["CDISCPILOT01","701","701","01-701-1181","2013-12-05","2013-12-09","Xanomeline High Dose",81.0,79.0,"65-80",2.0,"WHITE",1.0,"F","Y","Y","N","Week 8",8.0,"WEEK 2",4.0,8.0,"2013-12-12","Word Finding Difficulty In Spontaneous S","ACITM13",13.0,1.0,0.0,1.0,null,null,"Y",null,"2-84",56.0,48.0,2.0,84.0,"DAYS",5028.0],["CDISCPILOT01","701","701","01-701-1181","2013-12-05","2013-12-09","Xanomeline High Dose",81.0,79.0,"65-80",2.0,"WHITE",1.0,"F","Y","Y","N","Week 24",24.0,"RETRIEVAL",201.0,170.0,"2014-05-23","Word Finding Difficulty In Spontaneous S","ACITM13",13.0,2.0,0.0,2.0,null,null,"Y",null,">140",168.0,2.0,141.0,null,"DAYS",5043.0],["CDISCPILOT01","701","701","01-701-1181","2013-12-05","2013-12-09","Xanomeline High Dose",81.0,79.0,"65-80",2.0,"WHITE",1.0,"F","Y","Y","N","Week 8",8.0,"WEEK 2",4.0,8.0,"2013-12-12","Recall Of Test Instructions","ACITM14",14.0,3.0,3.0,0.0,0.0,null,"Y",null,"2-84",56.0,48.0,2.0,84.0,"DAYS",5029.0],["CDISCPILOT01","701","701","01-701-1181","2013-12-05","2013-12-09","Xanomeline High Dose",81.0,79.0,"65-80",2.0,"WHITE",1.0,"F","Y","Y","N","Week 24",24.0,"RETRIEVAL",201.0,170.0,"2014-05-23","Recall Of Test Instructions","ACITM14",14.0,2.0,3.0,-1.0,-33.33333333333333,null,"Y",null,">140",168.0,2.0,141.0,null,"DAYS",5044.0],["CDISCPILOT01","701","701","01-701-1181","2013-12-05","2013-12-09","Xanomeline High Dose",81.0,79.0,"65-80",2.0,"WHITE",1.0,"F","Y","Y","N","Week 8",8.0,"WEEK 2",4.0,8.0,"2013-12-12","Adas-Cog(11) Subscore","ACTOT",15.0,39.0,32.0,7.0,21.875,null,"Y",null,"2-84",56.0,48.0,2.0,84.0,"DAYS",5030.0],["CDISCPILOT01","701","701","01-701-1181","2013-12-05","2013-12-09","Xanomeline High Dose",81.0,79.0,"65-80",2.0,"WHITE",1.0,"F","Y","Y","N","Week 16",16.0,"WEEK 2",4.0,8.0,"2013-12-12","Adas-Cog(11) Subscore","ACTOT",15.0,39.0,32.0,7.0,21.875,null,"Y","LOCF","85-140",112.0,104.0,85.0,140.0,"DAYS",5030.0],["CDISCPILOT01","701","701","01-701-1181","2013-12-05","2013-12-09","Xanomeline High Dose",81.0,79.0,"65-80",2.0,"WHITE",1.0,"F","Y","Y","N","Week 24",24.0,"RETRIEVAL",201.0,170.0,"2014-05-23","Adas-Cog(11) Subscore","ACTOT",15.0,38.0,32.0,6.0,18.75,null,"Y",null,">140",168.0,2.0,141.0,null,"DAYS",5045.0],["CDISCPILOT01","701","701","01-701-1188","2013-02-15","2013-03-24","Xanomeline Low Dose",54.0,71.0,"65-80",2.0,"WHITE",1.0,"M","Y","Y","N","Week 8",8.0,"WEEK 6",7.0,39.0,"2013-03-25","Word Recall Task","ACITM01",1.0,4.0,5.0,-1.0,-20.0,null,"Y",null,"2-84",56.0,17.0,2.0,84.0,"DAYS",5016.0],["CDISCPILOT01","701","701","01-701-1188","2013-02-15","2013-03-24","Xanomeline Low Dose",54.0,71.0,"65-80",2.0,"WHITE",1.0,"M","Y","Y","N","Week 24",24.0,"RETRIEVAL",201.0,171.0,"2013-08-04","Word Recall Task","ACITM01",1.0,5.0,5.0,0.0,0.0,null,"Y",null,">140",168.0,3.0,141.0,null,"DAYS",5031.0],["CDISCPILOT01","701","701","01-701-1188","2013-02-15","2013-03-24","Xanomeline Low Dose",54.0,71.0,"65-80",2.0,"WHITE",1.0,"M","Y","Y","N","Week 8",8.0,"WEEK 6",7.0,39.0,"2013-03-25","Naming Objects And Fingers (Refer To 5 C","ACITM02",2.0,0.0,0.0,0.0,null,null,"Y",null,"2-84",56.0,17.0,2.0,84.0,"DAYS",5017.0],["CDISCPILOT01","701","701","01-701-1188","2013-02-15","2013-03-24","Xanomeline Low Dose",54.0,71.0,"65-80",2.0,"WHITE",1.0,"M","Y","Y","N","Week 24",24.0,"RETRIEVAL",201.0,171.0,"2013-08-04","Naming Objects And Fingers (Refer To 5 C","ACITM02",2.0,0.0,0.0,0.0,null,null,"Y",null,">140",168.0,3.0,141.0,null,"DAYS",5032.0],["CDISCPILOT01","701","701","01-701-1188","2013-02-15","2013-03-24","Xanomeline Low Dose",54.0,71.0,"65-80",2.0,"WHITE",1.0,"M","Y","Y","N","Week 8",8.0,"WEEK 6",7.0,39.0,"2013-03-25","Delayed Word Recall","ACITM03",3.0,5.0,6.0,-1.0,-16.666666666666664,null,"Y",null,"2-84",56.0,17.0,2.0,84.0,"DAYS",5018.0],["CDISCPILOT01","701","701","01-701-1188","2013-02-15","2013-03-24","Xanomeline Low Dose",54.0,71.0,"65-80",2.0,"WHITE",1.0,"M","Y","Y","N","Week 24",24.0,"RETRIEVAL",201.0,171.0,"2013-08-04","Delayed Word Recall","ACITM03",3.0,7.0,6.0,1.0,16.666666666666664,null,"Y",null,">140",168.0,3.0,141.0,null,"DAYS",5033.0],["CDISCPILOT01","701","701","01-701-1188","2013-02-15","2013-03-24","Xanomeline Low Dose",54.0,71.0,"65-80",2.0,"WHITE",1.0,"M","Y","Y","N","Week 8",8.0,"WEEK 6",7.0,39.0,"2013-03-25","Commands","ACITM04",4.0,0.0,0.0,0.0,null,null,"Y",null,"2-84",56.0,17.0,2.0,84.0,"DAYS",5019.0],["CDISCPILOT01","701","701","01-701-1188","2013-02-15","2013-03-24","Xanomeline Low Dose",54.0,71.0,"65-80",2.0,"WHITE",1.0,"M","Y","Y","N","Week 24",24.0,"RETRIEVAL",201.0,171.0,"2013-08-04","Commands","ACITM04",4.0,0.0,0.0,0.0,null,null,"Y",null,">140",168.0,3.0,141.0,null,"DAYS",5034.0],["CDISCPILOT01","701","701","01-701-1188","2013-02-15","2013-03-24","Xanomeline Low Dose",54.0,71.0,"65-80",2.0,"WHITE",1.0,"M","Y","Y","N","Week 8",8.0,"WEEK 6",7.0,39.0,"2013-03-25","Constructional Praxis","ACITM05",5.0,1.0,0.0,1.0,null,null,"Y",null,"2-84",56.0,17.0,2.0,84.0,"DAYS",5020.0],["CDISCPILOT01","701","701","01-701-1188","2013-02-15","2013-03-24","Xanomeline Low Dose",54.0,71.0,"65-80",2.0,"WHITE",1.0,"M","Y","Y","N","Week 24",24.0,"RETRIEVAL",201.0,171.0,"2013-08-04","Constructional Praxis","ACITM05",5.0,0.0,0.0,0.0,null,null,"Y",null,">140",168.0,3.0,141.0,null,"DAYS",5035.0],["CDISCPILOT01","701","701","01-701-1188","2013-02-15","2013-03-24","Xanomeline Low Dose",54.0,71.0,"65-80",2.0,"WHITE",1.0,"M","Y","Y","N","Week 8",8.0,"WEEK 6",7.0,39.0,"2013-03-25","Ideational Praxis","ACITM06",6.0,0.0,0.0,0.0,null,null,"Y",null,"2-84",56.0,17.0,2.0,84.0,"DAYS",5021.0],["CDISCPILOT01","701","701","01-701-1188","2013-02-15","2013-03-24","Xanomeline Low Dose",54.0,71.0,"65-80",2.0,"WHITE",1.0,"M","Y","Y","N","Week 24",24.0,"RETRIEVAL",201.0,171.0,"2013-08-04","Ideational Praxis","ACITM06",6.0,0.0,0.0,0.0,null,null,"Y",null,">140",168.0,3.0,141.0,null,"DAYS",5036.0],["CDISCPILOT01","701","701","01-701-1188","2013-02-15","2013-03-24","Xanomeline Low Dose",54.0,71.0,"65-80",2.0,"WHITE",1.0,"M","Y","Y","N","Week 8",8.0,"WEEK 6",7.0,39.0,"2013-03-25","Orientation","ACITM07",7.0,0.0,0.0,0.0,null,null,"Y",null,"2-84",56.0,17.0,2.0,84.0,"DAYS",5022.0],["CDISCPILOT01","701","701","01-701-1188","2013-02-15","2013-03-24","Xanomeline Low Dose",54.0,71.0,"65-80",2.0,"WHITE",1.0,"M","Y","Y","N","Week 24",24.0,"RETRIEVAL",201.0,171.0,"2013-08-04","Orientation","ACITM07",7.0,0.0,0.0,0.0,null,null,"Y",null,">140",168.0,3.0,141.0,null,"DAYS",5037.0],["CDISCPILOT01","701","701","01-701-1188","2013-02-15","2013-03-24","Xanomeline Low Dose",54.0,71.0,"65-80",2.0,"WHITE",1.0,"M","Y","Y","N","Week 8",8.0,"WEEK 6",7.0,39.0,"2013-03-25","Word Recognition","ACITM08",8.0,3.0,3.0,0.0,0.0,null,"Y",null,"2-84",56.0,17.0,2.0,84.0,"DAYS",5023.0],["CDISCPILOT01","701","701","01-701-1188","2013-02-15","2013-03-24","Xanomeline Low Dose",54.0,71.0,"65-80",2.0,"WHITE",1.0,"M","Y","Y","N","Week 24",24.0,"RETRIEVAL",201.0,171.0,"2013-08-04","Word Recognition","ACITM08",8.0,2.0,3.0,-1.0,-33.33333333333333,null,"Y",null,">140",168.0,3.0,141.0,null,"DAYS",5038.0],["CDISCPILOT01","701","701","01-701-1188","2013-02-15","2013-03-24","Xanomeline Low Dose",54.0,71.0,"65-80",2.0,"WHITE",1.0,"M","Y","Y","N","Week 8",8.0,"WEEK 6",7.0,39.0,"2013-03-25","Attention/Visual Search Task","ACITM09",9.0,36.0,26.0,10.0,38.46153846153847,null,"Y",null,"2-84",56.0,17.0,2.0,84.0,"DAYS",5024.0],["CDISCPILOT01","701","701","01-701-1188","2013-02-15","2013-03-24","Xanomeline Low Dose",54.0,71.0,"65-80",2.0,"WHITE",1.0,"M","Y","Y","N","Week 24",24.0,"RETRIEVAL",201.0,171.0,"2013-08-04","Attention/Visual Search Task","ACITM09",9.0,34.0,26.0,8.0,30.76923076923077,null,"Y",null,">140",168.0,3.0,141.0,null,"DAYS",5039.0],["CDISCPILOT01","701","701","01-701-1188","2013-02-15","2013-03-24","Xanomeline Low Dose",54.0,71.0,"65-80",2.0,"WHITE",1.0,"M","Y","Y","N","Week 8",8.0,"WEEK 6",7.0,39.0,"2013-03-25","Maze Solution","ACITM10",10.0,4.0,4.0,0.0,0.0,null,"Y",null,"2-84",56.0,17.0,2.0,84.0,"DAYS",5025.0],["CDISCPILOT01","701","701","01-701-1188","2013-02-15","2013-03-24","Xanomeline Low Dose",54.0,71.0,"65-80",2.0,"WHITE",1.0,"M","Y","Y","N","Week 24",24.0,"RETRIEVAL",201.0,171.0,"2013-08-04","Maze Solution","ACITM10",10.0,6.0,4.0,2.0,50.0,null,"Y",null,">140",168.0,3.0,141.0,null,"DAYS",5040.0],["CDISCPILOT01","701","701","01-701-1188","2013-02-15","2013-03-24","Xanomeline Low Dose",54.0,71.0,"65-80",2.0,"WHITE",1.0,"M","Y","Y","N","Week 8",8.0,"WEEK 6",7.0,39.0,"2013-03-25","Spoken Language Ability","ACITM11",11.0,0.0,0.0,0.0,null,null,"Y",null,"2-84",56.0,17.0,2.0,84.0,"DAYS",5026.0],["CDISCPILOT01","701","701","01-701-1188","2013-02-15","2013-03-24","Xanomeline Low Dose",54.0,71.0,"65-80",2.0,"WHITE",1.0,"M","Y","Y","N","Week 24",24.0,"RETRIEVAL",201.0,171.0,"2013-08-04","Spoken Language Ability","ACITM11",11.0,0.0,0.0,0.0,null,null,"Y",null,">140",168.0,3.0,141.0,null,"DAYS",5041.0],["CDISCPILOT01","701","701","01-701-1188","2013-02-15","2013-03-24","Xanomeline Low Dose",54.0,71.0,"65-80",2.0,"WHITE",1.0,"M","Y","Y","N","Week 8",8.0,"WEEK 6",7.0,39.0,"2013-03-25","Comprehension Of Spoken Language","ACITM12",12.0,0.0,0.0,0.0,null,null,"Y",null,"2-84",56.0,17.0,2.0,84.0,"DAYS",5027.0],["CDISCPILOT01","701","701","01-701-1188","2013-02-15","2013-03-24","Xanomeline Low Dose",54.0,71.0,"65-80",2.0,"WHITE",1.0,"M","Y","Y","N","Week 24",24.0,"RETRIEVAL",201.0,171.0,"2013-08-04","Comprehension Of Spoken Language","ACITM12",12.0,0.0,0.0,0.0,null,null,"Y",null,">140",168.0,3.0,141.0,null,"DAYS",5042.0],["CDISCPILOT01","701","701","01-701-1188","2013-02-15","2013-03-24","Xanomeline Low Dose",54.0,71.0,"65-80",2.0,"WHITE",1.0,"M","Y","Y","N","Week 8",8.0,"WEEK 6",7.0,39.0,"2013-03-25","Word Finding Difficulty In Spontaneous S","ACITM13",13.0,0.0,0.0,0.0,null,null,"Y",null,"2-84",56.0,17.0,2.0,84.0,"DAYS",5028.0],["CDISCPILOT01","701","701","01-701-1188","2013-02-15","2013-03-24","Xanomeline Low Dose",54.0,71.0,"65-80",2.0,"WHITE",1.0,"M","Y","Y","N","Week 24",24.0,"RETRIEVAL",201.0,171.0,"2013-08-04","Word Finding Difficulty In Spontaneous S","ACITM13",13.0,0.0,0.0,0.0,null,null,"Y",null,">140",168.0,3.0,141.0,null,"DAYS",5043.0],["CDISCPILOT01","701","701","01-701-1188","2013-02-15","2013-03-24","Xanomeline Low Dose",54.0,71.0,"65-80",2.0,"WHITE",1.0,"M","Y","Y","N","Week 8",8.0,"WEEK 6",7.0,39.0,"2013-03-25","Recall Of Test Instructions","ACITM14",14.0,0.0,0.0,0.0,null,null,"Y",null,"2-84",56.0,17.0,2.0,84.0,"DAYS",5029.0],["CDISCPILOT01","701","701","01-701-1188","2013-02-15","2013-03-24","Xanomeline Low Dose",54.0,71.0,"65-80",2.0,"WHITE",1.0,"M","Y","Y","N","Week 24",24.0,"RETRIEVAL",201.0,171.0,"2013-08-04","Recall Of Test Instructions","ACITM14",14.0,