{"datasetJSONCreationDateTime":"2026-05-05T17:26:05","datasetJSONVersion":"1.1.0","fileOID":"/cloud/project/pilot5-submission/pilot5-input/adamdata/adae","dbLastModifiedDateTime":"2026-05-05T17:26","originator":"R Submission Pilot 5","sourceSystem":{"name":"R on linux-gnu 6.17.0-1013-aws","version":"R version 4.4.3 (2025-02-28)"},"studyOID":"Pilot 5","metaDataVersionOID":"MDV.TDF_ADaM.ADaM-IG.1.1","metaDataRef":"/cloud/project/pilot5-submission/pilot5-input/adamdata/define.xml","itemGroupOID":"IG.ADAE","records":1191,"name":"ADAE","label":"Adverse Events Analysis Dataset","columns":[{"itemOID":"IT.ADAE.STUDYID","name":"STUDYID","label":"Study Identifier","dataType":"string","length":12},{"itemOID":"IT.ADAE.SITEID","name":"SITEID","label":"Study Site Identifier","dataType":"string","length":3},{"itemOID":"IT.ADAE.USUBJID","name":"USUBJID","label":"Unique Subject Identifier","dataType":"string","length":11,"keySequence":1},{"itemOID":"IT.ADAE.TRTA","name":"TRTA","label":"Actual Treatment","dataType":"string","length":20},{"itemOID":"IT.ADAE.TRTAN","name":"TRTAN","label":"Actual Treatment (N)","dataType":"integer"},{"itemOID":"IT.ADAE.AGE","name":"AGE","label":"Age","dataType":"integer"},{"itemOID":"IT.ADAE.AGEGR1","name":"AGEGR1","label":"Pooled Age Group 1","dataType":"string","length":5},{"itemOID":"IT.ADAE.AGEGR1N","name":"AGEGR1N","label":"Pooled Age Group 1 (N)","dataType":"integer"},{"itemOID":"IT.ADAE.RACE","name":"RACE","label":"Race","dataType":"string","length":32},{"itemOID":"IT.ADAE.RACEN","name":"RACEN","label":"Race (N)","dataType":"integer"},{"itemOID":"IT.ADAE.SEX","name":"SEX","label":"Sex","dataType":"string","length":1},{"itemOID":"IT.ADAE.SAFFL","name":"SAFFL","label":"Safety Population Flag","dataType":"string","length":1},{"itemOID":"IT.ADAE.TRTSDT","name":"TRTSDT","label":"Date of First Exposure to Treatment","dataType":"date","displayFormat":"DATE9.","targetDataType":"integer"},{"itemOID":"IT.ADAE.TRTEDT","name":"TRTEDT","label":"Date of Last Exposure to Treatment","dataType":"date","displayFormat":"DATE9.","targetDataType":"integer"},{"itemOID":"IT.ADAE.ASTDT","name":"ASTDT","label":"Analysis Start Date","dataType":"date","keySequence":3,"displayFormat":"DATE9.","targetDataType":"integer"},{"itemOID":"IT.ADAE.ASTDTF","name":"ASTDTF","label":"Analysis Start Date Imputation Flag","dataType":"string","length":1},{"itemOID":"IT.ADAE.ASTDY","name":"ASTDY","label":"Analysis Start Relative Day","dataType":"integer"},{"itemOID":"IT.ADAE.AENDT","name":"AENDT","label":"Analysis End Date","dataType":"date","displayFormat":"DATE9.","targetDataType":"integer"},{"itemOID":"IT.ADAE.AENDY","name":"AENDY","label":"Analysis End Relative Day","dataType":"integer"},{"itemOID":"IT.ADAE.ADURN","name":"ADURN","label":"Analysis Duration (N)","dataType":"integer"},{"itemOID":"IT.ADAE.ADURU","name":"ADURU","label":"Analysis Duration Units","dataType":"string","length":3},{"itemOID":"IT.ADAE.AETERM","name":"AETERM","label":"Reported Term for the Adverse Event","dataType":"string","length":46,"keySequence":2},{"itemOID":"IT.ADAE.AELLT","name":"AELLT","label":"Lowest Level Term","dataType":"string","length":46},{"itemOID":"IT.ADAE.AELLTCD","name":"AELLTCD","label":"Lowest Level Term Code","dataType":"integer"},{"itemOID":"IT.ADAE.AEDECOD","name":"AEDECOD","label":"Dictionary-Derived Term","dataType":"string","length":46},{"itemOID":"IT.ADAE.AEPTCD","name":"AEPTCD","label":"Preferred Term Code","dataType":"integer"},{"itemOID":"IT.ADAE.AEHLT","name":"AEHLT","label":"High Level Term","dataType":"string","length":8},{"itemOID":"IT.ADAE.AEHLTCD","name":"AEHLTCD","label":"High Level Term Code","dataType":"integer"},{"itemOID":"IT.ADAE.AEHLGT","name":"AEHLGT","label":"High Level Group Term","dataType":"string","length":9},{"itemOID":"IT.ADAE.AEHLGTCD","name":"AEHLGTCD","label":"High Level Group Term Code","dataType":"integer"},{"itemOID":"IT.ADAE.AEBODSYS","name":"AEBODSYS","label":"Body System or Organ Class","dataType":"string","length":67},{"itemOID":"IT.ADAE.AESOC","name":"AESOC","label":"Primary System Organ Class","dataType":"string","length":67},{"itemOID":"IT.ADAE.AESOCCD","name":"AESOCCD","label":"Primary System Organ Class Code","dataType":"integer"},{"itemOID":"IT.ADAE.AESEV","name":"AESEV","label":"Severity/Intensity","dataType":"string","length":8},{"itemOID":"IT.ADAE.AESER","name":"AESER","label":"Serious Event","dataType":"string","length":1},{"itemOID":"IT.ADAE.AESCAN","name":"AESCAN","label":"Involves Cancer","dataType":"string","length":1},{"itemOID":"IT.ADAE.AESCONG","name":"AESCONG","label":"Congenital Anomaly or Birth Defect","dataType":"string","length":1},{"itemOID":"IT.ADAE.AESDISAB","name":"AESDISAB","label":"Persist or Signif Disability/Incapacity","dataType":"string","length":1},{"itemOID":"IT.ADAE.AESDTH","name":"AESDTH","label":"Results in Death","dataType":"string","length":1},{"itemOID":"IT.ADAE.AESHOSP","name":"AESHOSP","label":"Requires or Prolongs Hospitalization","dataType":"string","length":1},{"itemOID":"IT.ADAE.AESLIFE","name":"AESLIFE","label":"Is Life Threatening","dataType":"string","length":1},{"itemOID":"IT.ADAE.AESOD","name":"AESOD","label":"Occurred with Overdose","dataType":"string","length":1},{"itemOID":"IT.ADAE.AEREL","name":"AEREL","label":"Causality","dataType":"string","length":8},{"itemOID":"IT.ADAE.AEACN","name":"AEACN","label":"Action Taken with Study Treatment","dataType":"string","length":1},{"itemOID":"IT.ADAE.AEOUT","name":"AEOUT","label":"Outcome of Adverse Event","dataType":"string","length":26},{"itemOID":"IT.ADAE.AESEQ","name":"AESEQ","label":"Sequence Number","dataType":"integer","keySequence":4},{"itemOID":"IT.ADAE.TRTEMFL","name":"TRTEMFL","label":"Treatment Emergent Analysis Flag","dataType":"string","length":1},{"itemOID":"IT.ADAE.AOCCFL","name":"AOCCFL","label":"1st Occurrence within Subject Flag","dataType":"string","length":1},{"itemOID":"IT.ADAE.AOCCSFL","name":"AOCCSFL","label":"1st Occurrence of SOC Flag","dataType":"string","length":1},{"itemOID":"IT.ADAE.AOCCPFL","name":"AOCCPFL","label":"1st Occurrence of Preferred Term Flag","dataType":"string","length":1},{"itemOID":"IT.ADAE.AOCC02FL","name":"AOCC02FL","label":"1st Occurrence 02 Flag for Serious","dataType":"string","length":1},{"itemOID":"IT.ADAE.AOCC03FL","name":"AOCC03FL","label":"1st Occurrence 03 Flag for Serious SOC","dataType":"string","length":1},{"itemOID":"IT.ADAE.AOCC04FL","name":"AOCC04FL","label":"1st Occurrence 04 Flag for Serious PT","dataType":"string","length":1},{"itemOID":"IT.ADAE.CQ01NAM","name":"CQ01NAM","label":"Customized Query 01 Name","dataType":"string","length":19},{"itemOID":"IT.ADAE.AOCC01FL","name":"AOCC01FL","label":"1st Occurrence 01 Flag for CQ01","dataType":"string","length":1}],"rows":[["CDISCPILOT01","701","01-701-1015","Placebo",0,63,"<65",1,"WHITE",1,"F","Y","2014-01-02","2014-07-02","2014-01-03","",2.0,null,null,null,"","APPLICATION SITE ERYTHEMA","APPLICATION SITE REDNESS",null,"APPLICATION SITE ERYTHEMA",null,"HLT_0617",null,"HLGT_0152",null,"GENERAL DISORDERS AND ADMINISTRATION SITE CONDITIONS","GENERAL DISORDERS AND ADMINISTRATION SITE CONDITIONS",null,"MILD","N","N","N","N","N","N","N","N","PROBABLE","","NOT RECOVERED/NOT RESOLVED",1.0,"Y","Y","Y","Y","","","","DERMATOLOGIC EVENTS","Y"],["CDISCPILOT01","701","01-701-1015","Placebo",0,63,"<65",1,"WHITE",1,"F","Y","2014-01-02","2014-07-02","2014-01-03","",2.0,null,null,null,"","APPLICATION SITE PRURITUS","APPLICATION SITE ITCHING",null,"APPLICATION SITE PRURITUS",null,"HLT_0317",null,"HLGT_0338",null,"GENERAL DISORDERS AND ADMINISTRATION SITE CONDITIONS","GENERAL DISORDERS AND ADMINISTRATION SITE CONDITIONS",null,"MILD","N","N","N","N","N","N","N","N","PROBABLE","","NOT RECOVERED/NOT RESOLVED",2.0,"Y","","","Y","","","","DERMATOLOGIC EVENTS",""],["CDISCPILOT01","701","01-701-1015","Placebo",0,63,"<65",1,"WHITE",1,"F","Y","2014-01-02","2014-07-02","2014-01-09","",8.0,"2014-01-11",10.0,3.0,"DAYS","DIARRHOEA","DIARRHEA",null,"DIARRHOEA",null,"HLT_0148",null,"HLGT_0588",null,"GASTROINTESTINAL DISORDERS","GASTROINTESTINAL DISORDERS",null,"MILD","N","N","N","N","N","N","N","N","REMOTE","","RECOVERED/RESOLVED",3.0,"Y","","Y","Y","","","","",""],["CDISCPILOT01","701","01-701-1023","Placebo",0,64,"<65",1,"WHITE",1,"M","Y","2012-08-05","2012-09-01","2012-08-26","",22.0,null,null,null,"","ATRIOVENTRICULAR BLOCK SECOND DEGREE","AV BLOCK SECOND DEGREE",null,"ATRIOVENTRICULAR BLOCK SECOND DEGREE",null,"HLT_0415",null,"HLGT_0086",null,"CARDIAC DISORDERS","CARDIAC DISORDERS",null,"MILD","N","N","N","N","N","N","N","N","POSSIBLE","","NOT RECOVERED/NOT RESOLVED",3.0,"Y","","Y","Y","","","","",""],["CDISCPILOT01","701","01-701-1023","Placebo",0,64,"<65",1,"WHITE",1,"M","Y","2012-08-05","2012-09-01","2012-08-07","",3.0,"2012-08-30",26.0,24.0,"DAYS","ERYTHEMA","ERYTHEMA",null,"ERYTHEMA",null,"HLT_0284",null,"HLGT_0192",null,"SKIN AND SUBCUTANEOUS TISSUE DISORDERS","SKIN AND SUBCUTANEOUS TISSUE DISORDERS",null,"MILD","N","N","N","N","N","N","N","N","POSSIBLE","","NOT RECOVERED/NOT RESOLVED",1.0,"Y","Y","Y","Y","","","","DERMATOLOGIC EVENTS","Y"],["CDISCPILOT01","701","01-701-1023","Placebo",0,64,"<65",1,"WHITE",1,"M","Y","2012-08-05","2012-09-01","2012-08-07","",3.0,null,null,null,"","ERYTHEMA","LOCALIZED ERYTHEMA",null,"ERYTHEMA",null,"HLT_0284",null,"HLGT_0192",null,"SKIN AND SUBCUTANEOUS TISSUE DISORDERS","SKIN AND SUBCUTANEOUS TISSUE DISORDERS",null,"MODERATE","N","N","N","N","N","N","N","N","PROBABLE","","NOT RECOVERED/NOT RESOLVED",2.0,"Y","","","","","","","DERMATOLOGIC EVENTS",""],["CDISCPILOT01","701","01-701-1023","Placebo",0,64,"<65",1,"WHITE",1,"M","Y","2012-08-05","2012-09-01","2012-08-07","",3.0,"2012-08-30",26.0,24.0,"DAYS","ERYTHEMA","ERYTHEMA",null,"ERYTHEMA",null,"HLT_0284",null,"HLGT_0192",null,"SKIN AND SUBCUTANEOUS TISSUE DISORDERS","SKIN AND SUBCUTANEOUS TISSUE DISORDERS",null,"MILD","N","N","N","N","N","N","N","N","POSSIBLE","","RECOVERED/RESOLVED",4.0,"Y","","","","","","","DERMATOLOGIC EVENTS",""],["CDISCPILOT01","701","01-701-1028","Xanomeline High Dose",81,71,"65-80",2,"WHITE",1,"M","Y","2013-07-19","2014-01-14","2013-07-21","",3.0,null,null,null,"","APPLICATION SITE ERYTHEMA","APPLICATION SITE ERYTHEMA",null,"APPLICATION SITE ERYTHEMA",null,"HLT_0617",null,"HLGT_0152",null,"GENERAL DISORDERS AND ADMINISTRATION SITE CONDITIONS","GENERAL DISORDERS AND ADMINISTRATION SITE CONDITIONS",null,"MILD","N","N","N","N","N","N","N","N","POSSIBLE","","NOT RECOVERED/NOT RESOLVED",1.0,"Y","Y","Y","Y","","","","DERMATOLOGIC EVENTS","Y"],["CDISCPILOT01","701","01-701-1028","Xanomeline High Dose",81,71,"65-80",2,"WHITE",1,"M","Y","2013-07-19","2014-01-14","2013-08-08","",21.0,null,null,null,"","APPLICATION SITE PRURITUS","APPLICATION SITE ITCHING",null,"APPLICATION SITE PRURITUS",null,"HLT_0317",null,"HLGT_0338",null,"GENERAL DISORDERS AND ADMINISTRATION SITE CONDITIONS","GENERAL DISORDERS AND ADMINISTRATION SITE CONDITIONS",null,"MILD","N","N","N","N","N","N","N","N","PROBABLE","","NOT RECOVERED/NOT RESOLVED",2.0,"Y","","","Y","","","","DERMATOLOGIC EVENTS",""],["CDISCPILOT01","701","01-701-1034","Xanomeline High Dose",81,77,"65-80",2,"WHITE",1,"F","Y","2014-07-01","2014-12-30","2014-08-27","",58.0,null,null,null,"","APPLICATION SITE PRURITUS","APPLICATION SITE ITCHING",null,"APPLICATION SITE PRURITUS",null,"HLT_0317",null,"HLGT_0338",null,"GENERAL DISORDERS AND ADMINISTRATION SITE CONDITIONS","GENERAL DISORDERS AND ADMINISTRATION SITE CONDITIONS",null,"MILD","N","N","N","N","N","N","N","N","PROBABLE","","NOT RECOVERED/NOT RESOLVED",1.0,"Y","Y","Y","Y","","","","DERMATOLOGIC EVENTS","Y"],["CDISCPILOT01","701","01-701-1034","Xanomeline High Dose",81,77,"65-80",2,"WHITE",1,"F","Y","2014-07-01","2014-12-30","2014-11-02","",125.0,null,null,null,"","FATIGUE","FATIGUE",null,"FATIGUE",null,"HLT_0043",null,"HLGT_0181",null,"GENERAL DISORDERS AND ADMINISTRATION SITE CONDITIONS","GENERAL DISORDERS AND ADMINISTRATION SITE CONDITIONS",null,"MILD","N","N","N","N","N","N","N","N","POSSIBLE","","NOT RECOVERED/NOT RESOLVED",2.0,"Y","","","Y","","","","",""],["CDISCPILOT01","701","01-701-1047","Placebo",0,85,">80",3,"WHITE",1,"F","Y","2013-02-12","2013-03-09","2013-03-10","",27.0,null,null,null,"","BUNDLE BRANCH BLOCK LEFT","LEFT BUNDLE BRANCH BLOCK",null,"BUNDLE BRANCH BLOCK LEFT",null,"HLT_0281",null,"HLGT_0721",null,"CARDIAC DISORDERS","CARDIAC DISORDERS",null,"MILD","N","N","N","N","N","N","N","N","NONE","","NOT RECOVERED/NOT RESOLVED",4.0,"Y","","Y","Y","","","","",""],["CDISCPILOT01","701","01-701-1047","Placebo",0,85,">80",3,"WHITE",1,"F","Y","2013-02-12","2013-03-09","2013-02-12","",1.0,"2013-02-12",1.0,1.0,"DAYS","HIATUS HERNIA","HERNIA HIATAL",null,"HIATUS HERNIA",null,"HLT_0159",null,"HLGT_0109",null,"GASTROINTESTINAL DISORDERS","GASTROINTESTINAL DISORDERS",null,"MODERATE","N","N","N","N","N","N","N","N","NONE","","NOT RECOVERED/NOT RESOLVED",1.0,"Y","Y","Y","Y","","","","",""],["CDISCPILOT01","701","01-701-1047","Placebo",0,85,">80",3,"WHITE",1,"F","Y","2013-02-12","2013-03-09","2013-02-12","",1.0,"2013-02-12",1.0,1.0,"DAYS","HIATUS HERNIA","HERNIA HIATAL",null,"HIATUS HERNIA",null,"HLT_0159",null,"HLGT_0109",null,"GASTROINTESTINAL DISORDERS","GASTROINTESTINAL DISORDERS",null,"MODERATE","N","N","N","N","N","N","N","N","NONE","","RECOVERED/RESOLVED",2.0,"Y","","","","","","","",""],["CDISCPILOT01","701","01-701-1047","Placebo",0,85,">80",3,"WHITE",1,"F","Y","2013-02-12","2013-03-09","2013-03-06","",23.0,null,null,null,"","UPPER RESPIRATORY TRACT INFECTION","UPPER RESPIRATORY INFECTION",null,"UPPER RESPIRATORY TRACT INFECTION",null,"HLT_0520",null,"HLGT_0489",null,"INFECTIONS AND INFESTATIONS","INFECTIONS AND INFESTATIONS",null,"MILD","N","N","N","N","N","N","N","N","NONE","","NOT RECOVERED/NOT RESOLVED",3.0,"Y","","Y","Y","","","","",""],["CDISCPILOT01","701","01-701-1097","Xanomeline Low Dose",54,68,"65-80",2,"WHITE",1,"M","Y","2014-01-01","2014-07-09","2014-02-21","",52.0,null,null,null,"","APPLICATION SITE PRURITUS","APPLICATION SITE ITCHING",null,"APPLICATION SITE PRURITUS",null,"HLT_0317",null,"HLGT_0338",null,"GENERAL DISORDERS AND ADMINISTRATION SITE CONDITIONS","GENERAL DISORDERS AND ADMINISTRATION SITE CONDITIONS",null,"MILD","N","N","N","N","N","N","N","N","POSSIBLE","","NOT RECOVERED/NOT RESOLVED",4.0,"Y","","","Y","","","","DERMATOLOGIC EVENTS",""],["CDISCPILOT01","701","01-701-1097","Xanomeline Low Dose",54,68,"65-80",2,"WHITE",1,"M","Y","2014-01-01","2014-07-09","2014-02-21","",52.0,null,null,null,"","APPLICATION SITE PRURITUS","APPLICATION SITE ITCHING",null,"APPLICATION SITE PRURITUS",null,"HLT_0317",null,"HLGT_0338",null,"GENERAL DISORDERS AND ADMINISTRATION SITE CONDITIONS","GENERAL DISORDERS AND ADMINISTRATION SITE CONDITIONS",null,"MODERATE","N","N","N","N","N","N","N","N","POSSIBLE","","NOT RECOVERED/NOT RESOLVED",10.0,"Y","","","","","","","DERMATOLOGIC EVENTS",""],["CDISCPILOT01","701","01-701-1097","Xanomeline Low Dose",54,68,"65-80",2,"WHITE",1,"M","Y","2014-01-01","2014-07-09","2014-02-20","",51.0,"2014-02-22",53.0,3.0,"DAYS","APPLICATION SITE VESICLES","APPLICATION SITE BLISTER",null,"APPLICATION SITE VESICLES",null,"HLT_0180",null,"HLGT_0576",null,"GENERAL DISORDERS AND ADMINISTRATION SITE CONDITIONS","GENERAL DISORDERS AND ADMINISTRATION SITE CONDITIONS",null,"MILD","N","N","N","N","N","N","N","N","PROBABLE","","RECOVERED/RESOLVED",3.0,"Y","","Y","Y","","","","DERMATOLOGIC EVENTS",""],["CDISCPILOT01","701","01-701-1097","Xanomeline Low Dose",54,68,"65-80",2,"WHITE",1,"M","Y","2014-01-01","2014-07-09","2014-01-03","",3.0,null,null,null,"","ERYTHEMA","ERYTHEMA",null,"ERYTHEMA",null,"HLT_0284",null,"HLGT_0192",null,"SKIN AND SUBCUTANEOUS TISSUE DISORDERS","SKIN AND SUBCUTANEOUS TISSUE DISORDERS",null,"MILD","N","N","N","N","N","N","N","N","POSSIBLE","","NOT RECOVERED/NOT RESOLVED",1.0,"Y","Y","Y","Y","","","","DERMATOLOGIC EVENTS","Y"],["CDISCPILOT01","701","01-701-1097","Xanomeline Low Dose",54,68,"65-80",2,"WHITE",1,"M","Y","2014-01-01","2014-07-09","2014-04-19","",109.0,"2014-04-22",112.0,4.0,"DAYS","NASAL CONGESTION","NASAL CONGESTION",null,"NASAL CONGESTION",null,"HLT_0118",null,"HLGT_0549",null,"RESPIRATORY, THORACIC AND MEDIASTINAL DISORDERS","RESPIRATORY, THORACIC AND MEDIASTINAL DISORDERS",null,"MILD","N","N","N","N","N","N","N","N","NONE","","RECOVERED/RESOLVED",9.0,"Y","","","Y","","","","",""],["CDISCPILOT01","701","01-701-1097","Xanomeline Low Dose",54,68,"65-80",2,"WHITE",1,"M","Y","2014-01-01","2014-07-09","2014-04-19","",109.0,"2014-04-22",112.0,4.0,"DAYS","PHARYNGOLARYNGEAL PAIN","SORE THROAT",null,"PHARYNGOLARYNGEAL PAIN",null,"HLT_0130",null,"HLGT_0402",null,"RESPIRATORY, THORACIC AND MEDIASTINAL DISORDERS","RESPIRATORY, THORACIC AND MEDIASTINAL DISORDERS",null,"MILD","N","N","N","N","N","N","N","N","NONE","","RECOVERED/RESOLVED",8.0,"Y","","Y","Y","","","","",""],["CDISCPILOT01","701","01-701-1097","Xanomeline Low Dose",54,68,"65-80",2,"WHITE",1,"M","Y","2014-01-01","2014-07-09","2014-02-20","",51.0,"2014-02-20",51.0,1.0,"DAYS","PRURITUS GENERALISED","GENERALIZED PRURITUS",null,"PRURITUS GENERALISED",null,"HLT_0123",null,"HLGT_0689",null,"SKIN AND SUBCUTANEOUS TISSUE DISORDERS","SKIN AND SUBCUTANEOUS TISSUE DISORDERS",null,"MODERATE","N","N","N","N","N","N","N","N","POSSIBLE","","RECOVERED/RESOLVED",2.0,"Y","","","Y","","","","DERMATOLOGIC EVENTS",""],["CDISCPILOT01","701","01-701-1097","Xanomeline Low Dose",54,68,"65-80",2,"WHITE",1,"M","Y","2014-01-01","2014-07-09","2014-03-21","",80.0,"2014-03-21",80.0,1.0,"DAYS","PRURITUS GENERALISED","GENERALIZED PRURITUS",null,"PRURITUS GENERALISED",null,"HLT_0123",null,"HLGT_0689",null,"SKIN AND SUBCUTANEOUS TISSUE DISORDERS","SKIN AND SUBCUTANEOUS TISSUE DISORDERS",null,"MODERATE","N","N","N","N","N","N","N","N","POSSIBLE","","RECOVERED/RESOLVED",5.0,"Y","","","","","","","DERMATOLOGIC EVENTS",""],["CDISCPILOT01","701","01-701-1097","Xanomeline Low Dose",54,68,"65-80",2,"WHITE",1,"M","Y","2014-01-01","2014-07-09","2014-03-31","",90.0,"2014-03-31",90.0,1.0,"DAYS","PRURITUS GENERALISED","GENERALIZED PRURITUS",null,"PRURITUS GENERALISED",null,"HLT_0123",null,"HLGT_0689",null,"SKIN AND SUBCUTANEOUS TISSUE DISORDERS","SKIN AND SUBCUTANEOUS TISSUE DISORDERS",null,"MODERATE","N","N","N","N","N","N","N","N","POSSIBLE","","RECOVERED/RESOLVED",6.0,"Y","","","","","","","DERMATOLOGIC EVENTS",""],["CDISCPILOT01","701","01-701-1097","Xanomeline Low Dose",54,68,"65-80",2,"WHITE",1,"M","Y","2014-01-01","2014-07-09","2014-04-19","",109.0,"2014-04-20",110.0,2.0,"DAYS","PRURITUS GENERALISED","GENERALIZED PRURITUS",null,"PRURITUS GENERALISED",null,"HLT_0123",null,"HLGT_0689",null,"SKIN AND SUBCUTANEOUS TISSUE DISORDERS","SKIN AND SUBCUTANEOUS TISSUE DISORDERS",null,"MODERATE","N","N","N","N","N","N","N","N","POSSIBLE","","RECOVERED/RESOLVED",7.0,"Y","","","","","","","DERMATOLOGIC EVENTS",""],["CDISCPILOT01","701","01-701-1111","Xanomeline Low Dose",54,81,">80",3,"WHITE",1,"F","Y","2012-09-07","2012-09-16","2012-09-13","",7.0,null,null,null,"","ARTHRALGIA","GENERALIZED JOINT PAIN",null,"ARTHRALGIA",null,"HLT_0375",null,"HLGT_0610",null,"MUSCULOSKELETAL AND CONNECTIVE TISSUE DISORDERS","MUSCULOSKELETAL AND CONNECTIVE TISSUE DISORDERS",null,"MODERATE","N","N","N","N","N","N","N","N","NONE","","NOT RECOVERED/NOT RESOLVED",7.0,"Y","","Y","Y","","","","",""],["CDISCPILOT01","701","01-701-1111","Xanomeline Low Dose",54,81,">80",3,"WHITE",1,"F","Y","2012-09-07","2012-09-16","2012-09-13","",7.0,null,null,null,"","CELLULITIS","CELLULITIS OF LEG",null,"CELLULITIS",null,"HLT_0613",null,"HLGT_0066",null,"INFECTIONS AND INFESTATIONS","INFECTIONS AND INFESTATIONS",null,"MODERATE","N","N","N","N","N","N","N","N","NONE","","NOT RECOVERED/NOT RESOLVED",8.0,"Y","","Y","Y","","","","",""],["CDISCPILOT01","701","01-701-1111","Xanomeline Low Dose",54,81,">80",3,"WHITE",1,"F","Y","2012-09-07","2012-09-16","2012-09-02","",-5.0,"2012-09-07",1.0,6.0,"DAYS","ERYTHEMA","ERYTHEMA",null,"ERYTHEMA",null,"HLT_0284",null,"HLGT_0192",null,"SKIN AND SUBCUTANEOUS TISSUE DISORDERS","SKIN AND SUBCUTANEOUS TISSUE DISORDERS",null,"MILD","N","N","N","N","N","N","N","N","NONE","","NOT RECOVERED/NOT RESOLVED",1.0,"","","","","","","","DERMATOLOGIC EVENTS",""],["CDISCPILOT01","701","01-701-1111","Xanomeline Low Dose",54,81,">80",3,"WHITE",1,"F","Y","2012-09-07","2012-09-16","2012-09-02","",-5.0,"2012-09-07",1.0,6.0,"DAYS","ERYTHEMA","ERYTHEMA",null,"ERYTHEMA",null,"HLT_0284",null,"HLGT_0192",null,"SKIN AND SUBCUTANEOUS TISSUE DISORDERS","SKIN AND SUBCUTANEOUS TISSUE DISORDERS",null,"MILD","N","N","N","N","N","N","N","N","NONE","","RECOVERED/RESOLVED",4.0,"","","","","","","","DERMATOLOGIC EVENTS",""],["CDISCPILOT01","701","01-701-1111","Xanomeline Low Dose",54,81,">80",3,"WHITE",1,"F","Y","2012-09-07","2012-09-16","2012-07-08","",-61.0,null,null,null,"","LOCALISED INFECTION","LOCALIZED INFECTION",null,"LOCALISED INFECTION",null,"HLT_0435",null,"HLGT_0557",null,"INFECTIONS AND INFESTATIONS","INFECTIONS AND INFESTATIONS",null,"MODERATE","N","N","N","N","N","N","N","N","NONE","","NOT RECOVERED/NOT RESOLVED",3.0,"","","","","","","","",""],["CDISCPILOT01","701","01-701-1111","Xanomeline Low Dose",54,81,">80",3,"WHITE",1,"F","Y","2012-09-07","2012-09-16","2012-09-07","",1.0,null,null,null,"","MICTURITION URGENCY","URINARY URGENCY",null,"MICTURITION URGENCY",null,"HLT_0294",null,"HLGT_0483",null,"RENAL AND URINARY DISORDERS","RENAL AND URINARY DISORDERS",null,"MILD","N","N","N","N","N","N","N","N","NONE","","NOT RECOVERED/NOT RESOLVED",6.0,"Y","Y","Y","Y","","","","",""],["CDISCPILOT01","701","01-701-1111","Xanomeline Low Dose",54,81,">80",3,"WHITE",1,"F","Y","2012-09-07","2012-09-16","2012-09-02","",-5.0,"2012-09-07",1.0,6.0,"DAYS","PRURITUS","ITCHING",null,"PRURITUS",null,"HLT_0778",null,"HLGT_0695",null,"SKIN AND SUBCUTANEOUS TISSUE DISORDERS","SKIN AND SUBCUTANEOUS TISSUE DISORDERS",null,"MILD","N","N","N","N","N","N","N","N","NONE","","NOT RECOVERED/NOT RESOLVED",2.0,"","","","","","","","DERMATOLOGIC EVENTS",""],["CDISCPILOT01","701","01-701-1111","Xanomeline Low Dose",54,81,">80",3,"WHITE",1,"F","Y","2012-09-07","2012-09-16","2012-09-02","",-5.0,"2012-09-07",1.0,6.0,"DAYS","PRURITUS","ITCHING",null,"PRURITUS",null,"HLT_0778",null,"HLGT_0695",null,"SKIN AND SUBCUTANEOUS TISSUE DISORDERS","SKIN AND SUBCUTANEOUS TISSUE DISORDERS",null,"MILD","N","N","N","N","N","N","N","N","NONE","","RECOVERED/RESOLVED",5.0,"","","","","","","","DERMATOLOGIC EVENTS",""],["CDISCPILOT01","701","01-701-1115","Xanomeline Low Dose",54,84,">80",3,"WHITE",1,"M","Y","2012-11-30","2013-01-23","2013-01-19","",51.0,null,null,null,"","APPLICATION SITE DERMATITIS","APPLICATION SITE RASH",null,"APPLICATION SITE DERMATITIS",null,"HLT_0343",null,"HLGT_0241",null,"GENERAL DISORDERS AND ADMINISTRATION SITE CONDITIONS","GENERAL DISORDERS AND ADMINISTRATION SITE CONDITIONS",null,"MODERATE","N","N","N","N","N","N","N","N","PROBABLE","","NOT RECOVERED/NOT RESOLVED",9.0,"Y","","","Y","","","","DERMATOLOGIC EVENTS",""],["CDISCPILOT01","701","01-701-1115","Xanomeline Low Dose",54,84,">80",3,"WHITE",1,"M","Y","2012-11-30","2013-01-23","2012-12-02","",3.0,null,null,null,"","APPLICATION SITE ERYTHEMA","APPLICATION SITE REDNESS",null,"APPLICATION SITE ERYTHEMA",null,"HLT_0617",null,"HLGT_0152",null,"GENERAL DISORDERS AND ADMINISTRATION SITE CONDITIONS","GENERAL DISORDERS AND ADMINISTRATION SITE CONDITIONS",null,"MILD","N","N","N","N","N","N","N","N","PROBABLE","","NOT RECOVERED/NOT RESOLVED",1.0,"Y","Y","Y","Y","","","","DERMATOLOGIC EVENTS","Y"],["CDISCPILOT01","701","01-701-1115","Xanomeline Low Dose",54,84,">80",3,"WHITE",1,"M","Y","2012-11-30","2013-01-23","2012-12-02","",3.0,null,null,null,"","APPLICATION SITE ERYTHEMA","APPLICATION SITE REDNESS",null,"APPLICATION SITE ERYTHEMA",null,"HLT_0617",null,"HLGT_0152",null,"GENERAL DISORDERS AND ADMINISTRATION SITE CONDITIONS","GENERAL DISORDERS AND ADMINISTRATION SITE CONDITIONS",null,"MODERATE","N","N","N","N","N","N","N","N","PROBABLE","","NOT RECOVERED/NOT RESOLVED",5.0,"Y","","","","","","","DERMATOLOGIC EVENTS",""],["CDISCPILOT01","701","01-701-1115","Xanomeline Low Dose",54,84,">80",3,"WHITE",1,"M","Y","2012-11-30","2013-01-23","2012-12-26","",27.0,"2012-12-26",27.0,1.0,"DAYS","APPLICATION SITE IRRITATION","APPLICATION SITE BURNING",null,"APPLICATION SITE IRRITATION",null,"HLT_0061",null,"HLGT_0346",null,"GENERAL DISORDERS AND ADMINISTRATION SITE CONDITIONS","GENERAL DISORDERS AND ADMINISTRATION SITE CONDITIONS",null,"MILD","N","N","N","N","N","N","N","N","POSSIBLE","","NOT RECOVERED/NOT RESOLVED",3.0,"Y","","","Y","","","","DERMATOLOGIC EVENTS",""],["CDISCPILOT01","701","01-701-1115","Xanomeline Low Dose",54,84,">80",3,"WHITE",1,"M","Y","2012-11-30","2013-01-23","2012-12-26","",27.0,"2012-12-26",27.0,1.0,"DAYS","APPLICATION SITE IRRITATION","APPLICATION SITE BURNING",null,"APPLICATION SITE IRRITATION",null,"HLT_0061",null,"HLGT_0346",null,"GENERAL DISORDERS AND ADMINISTRATION SITE CONDITIONS","GENERAL DISORDERS AND ADMINISTRATION SITE CONDITIONS",null,"MILD","N","N","N","N","N","N","N","N","POSSIBLE","","RECOVERED/RESOLVED",4.0,"Y","","","","","","","DERMATOLOGIC EVENTS",""],["CDISCPILOT01","701","01-701-1115","Xanomeline Low Dose",54,84,">80",3,"WHITE",1,"M","Y","2012-11-30","2013-01-23","2013-01-19","",51.0,null,null,null,"","APPLICATION SITE IRRITATION","APPLICATION SITE BURNING",null,"APPLICATION SITE IRRITATION",null,"HLT_0061",null,"HLGT_0346",null,"GENERAL DISORDERS AND ADMINISTRATION SITE CONDITIONS","GENERAL DISORDERS AND ADMINISTRATION SITE CONDITIONS",null,"MODERATE","N","N","N","N","N","N","N","N","PROBABLE","","NOT RECOVERED/NOT RESOLVED",8.0,"Y","","","","","","","DERMATOLOGIC EVENTS",""],["CDISCPILOT01","701","01-701-1115","Xanomeline Low Dose",54,84,">80",3,"WHITE",1,"M","Y","2012-11-30","2013-01-23","2012-12-02","",3.0,null,null,null,"","APPLICATION SITE PRURITUS","APPLICATION SITE ITCHING",null,"APPLICATION SITE PRURITUS",null,"HLT_0317",null,"HLGT_0338",null,"GENERAL DISORDERS AND ADMINISTRATION SITE CONDITIONS","GENERAL DISORDERS AND ADMINISTRATION SITE CONDITIONS",null,"MILD","N","N","N","N","N","N","N","N","PROBABLE","","NOT RECOVERED/NOT RESOLVED",2.0,"Y","","","Y","","","","DERMATOLOGIC EVENTS",""],["CDISCPILOT01","701","01-701-1115","Xanomeline Low Dose",54,84,">80",3,"WHITE",1,"M","Y","2012-11-30","2013-01-23","2012-12-02","",3.0,null,null,null,"","APPLICATION SITE PRURITUS","APPLICATION SITE ITCHING",null,"APPLICATION SITE PRURITUS",null,"HLT_0317",null,"HLGT_0338",null,"GENERAL DISORDERS AND ADMINISTRATION SITE CONDITIONS","GENERAL DISORDERS AND ADMINISTRATION SITE CONDITIONS",null,"MODERATE","N","N","N","N","N","N","N","N","PROBABLE","","NOT RECOVERED/NOT RESOLVED",6.0,"Y","","","","","","","DERMATOLOGIC EVENTS",""],["CDISCPILOT01","701","01-701-1115","Xanomeline Low Dose",54,84,">80",3,"WHITE",1,"M","Y","2012-11-30","2013-01-23","2013-01-14","",46.0,null,null,null,"","FATIGUE","FATIGUE",null,"FATIGUE",null,"HLT_0043",null,"HLGT_0181",null,"GENERAL DISORDERS AND ADMINISTRATION SITE CONDITIONS","GENERAL DISORDERS AND ADMINISTRATION SITE CONDITIONS",null,"MODERATE","N","N","N","N","N","N","N","N","REMOTE","","NOT RECOVERED/NOT RESOLVED",7.0,"Y","","","Y","","","","",""],["CDISCPILOT01","701","01-701-1118","Placebo",0,52,"<65",1,"WHITE",1,"M","Y","2014-03-12","2014-09-09",null,"",null,null,null,null,"","COUGH","COUGH",null,"COUGH",null,"HLT_0701",null,"HLGT_0280",null,"RESPIRATORY, THORACIC AND MEDIASTINAL DISORDERS","RESPIRATORY, THORACIC AND MEDIASTINAL DISORDERS",null,"MILD","N","N","N","N","N","N","N","N","NONE","","NOT RECOVERED/NOT RESOLVED",1.0,"","","","","","","","",""],["CDISCPILOT01","701","01-701-1130","Placebo",0,84,">80",3,"WHITE",1,"M","Y","2014-02-15","2014-08-16","2014-05-09","",84.0,"2014-05-09",84.0,1.0,"DAYS","EYE ALLERGY","EYE ALLERGY",null,"EYE ALLERGY",null,"HLT_0256",null,"HLGT_0071",null,"EYE DISORDERS","EYE DISORDERS",null,"MILD","N","N","N","N","N","N","N","N","NONE","","RECOVERED/RESOLVED",5.0,"Y","","","Y","","","","",""],["CDISCPILOT01","701","01-701-1130","Placebo",0,84,">80",3,"WHITE",1,"M","Y","2014-02-15","2014-08-16","2014-05-22","",97.0,null,null,null,"","EYE PRURITUS","EYE ITCHING",null,"EYE PRURITUS",null,"HLT_0523",null,"HLGT_0240",null,"EYE DISORDERS","EYE DISORDERS",null,"MILD","N","N","N","N","N","N","N","N","REMOTE","","NOT RECOVERED/NOT RESOLVED",6.0,"Y","","","Y","","","","",""],["CDISCPILOT01","701","01-701-1130","Placebo",0,84,">80",3,"WHITE",1,"M","Y","2014-02-15","2014-08-16","2014-05-09","",84.0,"2014-05-09",84.0,1.0,"DAYS","EYE SWELLING","EYES SWOLLEN",null,"EYE SWELLING",null,"HLT_0008",null,"HLGT_0466",null,"EYE DISORDERS","EYE DISORDERS",null,"MILD","N","N","N","N","N","N","N","N","NONE","","RECOVERED/RESOLVED",4.0,"Y","","Y","Y","","","","",""],["CDISCPILOT01","701","01-701-1130","Placebo",0,84,">80",3,"WHITE",1,"M","Y","2014-02-15","2014-08-16","2014-05-22","",97.0,null,null,null,"","NASAL CONGESTION","NASAL CONGESTION",null,"NASAL CONGESTION",null,"HLT_0118",null,"HLGT_0549",null,"RESPIRATORY, THORACIC AND MEDIASTINAL DISORDERS","RESPIRATORY, THORACIC AND MEDIASTINAL DISORDERS",null,"MILD","N","N","N","N","N","N","N","N","REMOTE","","NOT RECOVERED/NOT RESOLVED",8.0,"Y","","Y","Y","","","","",""],["CDISCPILOT01","701","01-701-1130","Placebo",0,84,">80",3,"WHITE",1,"M","Y","2014-02-15","2014-08-16","2014-05-22","",97.0,null,null,null,"","PRURITUS","ITCHING BOTH HANDS",null,"PRURITUS",null,"HLT_0778",null,"HLGT_0695",null,"SKIN AND SUBCUTANEOUS TISSUE DISORDERS","SKIN AND SUBCUTANEOUS TISSUE DISORDERS",null,"MILD","N","N","N","N","N","N","N","N","REMOTE","","NOT RECOVERED/NOT RESOLVED",7.0,"Y","","Y","Y","","","","DERMATOLOGIC EVENTS","Y"],["CDISCPILOT01","701","01-701-1130","Placebo",0,84,">80",3,"WHITE",1,"M","Y","2014-02-15","2014-08-16","2014-03-09","",23.0,"2014-03-09",23.0,1.0,"DAYS","PYREXIA","FEVER",null,"PYREXIA",null,"HLT_0310",null,"HLGT_0652",null,"GENERAL DISORDERS AND ADMINISTRATION SITE CONDITIONS","GENERAL DISORDERS AND ADMINISTRATION SITE CONDITIONS",null,"MILD","N","N","N","N","N","N","N","N","NONE","","RECOVERED/RESOLVED",2.0,"Y","","Y","Y","","","","",""],["CDISCPILOT01","701","01-701-1130","Placebo",0,84,">80",3,"WHITE",1,"M","Y","2014-02-15","2014-08-16","2014-03-09","",23.0,"2014-03-16",30.0,8.0,"DAYS","URINARY TRACT INFECTION","URINARY TRACT INFECTION",null,"URINARY TRACT INFECTION",null,"HLT_0161",null,"HLGT_0093",null,"INFECTIONS AND INFESTATIONS","INFECTIONS AND INFESTATIONS",null,"MILD","N","N","N","N","N","N","N","N","NONE","","NOT RECOVERED/NOT RESOLVED",1.0,"Y","Y","Y","Y","","","","",""],["CDISCPILOT01","701","01-701-1130","Placebo",0,84,">80",3,"WHITE",1,"M","Y","2014-02-15","2014-08-16","2014-03-09","",23.0,"2014-03-16",30.0,8.0,"DAYS","URINARY TRACT INFECTION","URINARY TRACT INFECTION",null,"URINARY TRACT INFECTION",null,"HLT_0161",null,"HLGT_0093",null,"INFECTIONS AND INFESTATIONS","INFECTIONS AND INFESTATIONS",null,"MILD","N","N","N","N","N","N","N","N","NONE","","RECOVERED/RESOLVED",3.0,"Y","","","","","","","",""],["CDISCPILOT01","701","01-701-1133","Xanomeline High Dose",81,81,">80",3,"WHITE",1,"F","Y","2012-10-28","2013-04-28","2012-12-27","",61.0,null,null,null,"","APPLICATION SITE ERYTHEMA","APPLICATION SITE REDNESS",null,"APPLICATION SITE ERYTHEMA",null,"HLT_0617",null,"HLGT_0152",null,"GENERAL DISORDERS AND ADMINISTRATION SITE CONDITIONS","GENERAL DISORDERS AND ADMINISTRATION SITE CONDITIONS",null,"MILD","N","N","N","N","N","N","N","N","PROBABLE","","NOT RECOVERED/NOT RESOLVED",1.0,"Y","Y","Y","Y","","","","DERMATOLOGIC EVENTS","Y"],["CDISCPILOT01","701","01-701-1133","Xanomeline High Dose",81,81,">80",3,"WHITE",1,"F","Y","2012-10-28","2013-04-28","2012-12-27","",61.0,null,null,null,"","APPLICATION SITE ERYTHEMA","APPLICATION SITE REDNESS",null,"APPLICATION SITE ERYTHEMA",null,"HLT_0617",null,"HLGT_0152",null,"GENERAL DISORDERS AND ADMINISTRATION SITE CONDITIONS","GENERAL DISORDERS AND ADMINISTRATION SITE CONDITIONS",null,"MODERATE","N","N","N","N","N","N","N","N","PROBABLE","","NOT RECOVERED/NOT RESOLVED",3.0,"Y","","","","","","","DERMATOLOGIC EVENTS",""],["CDISCPILOT01","701","01-701-1133","Xanomeline High Dose",81,81,">80",3,"WHITE",1,"F","Y","2012-10-28","2013-04-28","2012-12-27","",61.0,null,null,null,"","APPLICATION SITE PRURITUS","APPLICATION SITE ITCHING",null,"APPLICATION SITE PRURITUS",null,"HLT_0317",null,"HLGT_0338",null,"GENERAL DISORDERS AND ADMINISTRATION SITE CONDITIONS","GENERAL DISORDERS AND ADMINISTRATION SITE CONDITIONS",null,"MILD","N","N","N","N","N","N","N","N","PROBABLE","","NOT RECOVERED/NOT RESOLVED",2.0,"Y","","","Y","","","","DERMATOLOGIC EVENTS",""],["CDISCPILOT01","701","01-701-1133","Xanomeline High Dose",81,81,">80",3,"WHITE",1,"F","Y","2012-10-28","2013-04-28","2012-12-27","",61.0,null,null,null,"","APPLICATION SITE PRURITUS","APPLICATION SITE ITCHING",null,"APPLICATION SITE PRURITUS",null,"HLT_0317",null,"HLGT_0338",null,"GENERAL DISORDERS AND ADMINISTRATION SITE CONDITIONS","GENERAL DISORDERS AND ADMINISTRATION SITE CONDITIONS",null,"MODERATE","N","N","N","N","N","N","N","N","PROBABLE","","NOT RECOVERED/NOT RESOLVED",4.0,"Y","","","","","","","DERMATOLOGIC EVENTS",""],["CDISCPILOT01","701","01-701-1146","Xanomeline High Dose",81,75,"65-80",2,"WHITE",1,"F","Y","2013-05-20","2013-06-26","2013-06-10","",22.0,null,null,null,"","APPLICATION SITE ERYTHEMA","APPLICATION SITE ERYTHEMA",null,"APPLICATION SITE ERYTHEMA",null,"HLT_0617",null,"HLGT_0152",null,"GENERAL DISORDERS AND ADMINISTRATION SITE CONDITIONS","GENERAL DISORDERS AND ADMINISTRATION SITE CONDITIONS",null,"MILD","N","N","N","N","N","N","N","N","PROBABLE","","NOT RECOVERED/NOT RESOLVED",5.0,"Y","","","Y","","","","DERMATOLOGIC EVENTS",""],["CDISCPILOT01","701","01-701-1146","Xanomeline High Dose",81,75,"65-80",2,"WHITE",1,"F","Y","2013-05-20","2013-06-26","2013-06-10","",22.0,null,null,null,"","APPLICATION SITE ERYTHEMA","APPLICATION SITE ERYTHEMA",null,"APPLICATION SITE ERYTHEMA",null,"HLT_0617",null,"HLGT_0152",null,"GENERAL DISORDERS AND ADMINISTRATION SITE CONDITIONS","GENERAL DISORDERS AND ADMINISTRATION SITE CONDITIONS",null,"MODERATE","N","N","N","N","N","N","N","N","PROBABLE","","NOT RECOVERED/NOT RESOLVED",7.0,"Y","","","","","","","DERMATOLOGIC EVENTS",""],["CDISCPILOT01","701","01-701-1146","Xanomeline High Dose",81,75,"65-80",2,"WHITE",1,"F","Y","2013-05-20","2013-06-26","2013-06-01","",13.0,"2013-06-02",14.0,2.0,"DAYS","APPLICATION SITE IRRITATION","APPLICATION SITE IRRITATION",null,"APPLICATION SITE IRRITATION",null,"HLT_0061",null,"HLGT_0346",null,"GENERAL DISORDERS AND ADMINISTRATION SITE CONDITIONS","GENERAL DISORDERS AND ADMINISTRATION SITE CONDITIONS",null,"MILD","N","N","N","N","N","N","N","N","PROBABLE","","RECOVERED/RESOLVED",3.0,"Y","Y","Y","Y","","","","DERMATOLOGIC EVENTS","Y"],["CDISCPILOT01","701","01-701-1146","Xanomeline High Dose",81,75,"65-80",2,"WHITE",1,"F","Y","2013-05-20","2013-06-26","2013-06-26","",38.0,null,null,null,"","APPLICATION SITE IRRITATION","APPLICATION SITE BURNING",null,"APPLICATION SITE IRRITATION",null,"HLT_0061",null,"HLGT_0346",null,"GENERAL DISORDERS AND ADMINISTRATION SITE CONDITIONS","GENERAL DISORDERS AND ADMINISTRATION SITE CONDITIONS",null,"MODERATE","N","N","N","N","N","N","N","N","PROBABLE","","NOT RECOVERED/NOT RESOLVED",11.0,"Y","","","","","","","DERMATOLOGIC EVENTS",""],["CDISCPILOT01","701","01-701-1146","Xanomeline High Dose",81,75,"65-80",2,"WHITE",1,"F","Y","2013-05-20","2013-06-26","2013-06-22","",34.0,null,null,null,"","APPLICATION SITE PAIN","APPLICATION SITE PAIN",null,"APPLICATION SITE PAIN",null,"HLT_0342",null,"HLGT_0085",null,"GENERAL DISORDERS AND ADMINISTRATION SITE CONDITIONS","GENERAL DISORDERS AND ADMINISTRATION SITE CONDITIONS",null,"MODERATE","N","N","N","N","N","N","N","N","PROBABLE","","NOT RECOVERED/NOT RESOLVED",9.0,"Y","","","Y","","","","DERMATOLOGIC EVENTS",""],["CDISCPILOT01","701","01-701-1146","Xanomeline High Dose",81,75,"65-80",2,"WHITE",1,"F","Y","2013-05-20","2013-06-26","2013-06-10","",22.0,null,null,null,"","APPLICATION SITE PRURITUS","APPLICATION SITE ITCHING",null,"APPLICATION SITE PRURITUS",null,"HLT_0317",null,"HLGT_0338",null,"GENERAL DISORDERS AND ADMINISTRATION SITE CONDITIONS","GENERAL DISORDERS AND ADMINISTRATION SITE CONDITIONS",null,"MILD","N","N","N","N","N","N","N","N","PROBABLE","","NOT RECOVERED/NOT RESOLVED",6.0,"Y","","","Y","","","","DERMATOLOGIC EVENTS",""],["CDISCPILOT01","701","01-701-1146","Xanomeline High Dose",81,75,"65-80",2,"WHITE",1,"F","Y","2013-05-20","2013-06-26","2013-06-10","",22.0,null,null,null,"","APPLICATION SITE PRURITUS","APPLICATION SITE ITCHING",null,"APPLICATION SITE PRURITUS",null,"HLT_0317",null,"HLGT_0338",null,"GENERAL DISORDERS AND ADMINISTRATION SITE CONDITIONS","GENERAL DISORDERS AND ADMINISTRATION SITE CONDITIONS",null,"MODERATE","N","N","N","N","N","N","N","N","PROBABLE","","NOT RECOVERED/NOT RESOLVED",8.0,"Y","","","","","","","DERMATOLOGIC EVENTS",""],["CDISCPILOT01","701","01-701-1146","Xanomeline High Dose",81,75,"65-80",2,"WHITE",1,"F","Y","2013-05-20","2013-06-26","2013-06-26","",38.0,null,null,null,"","APPLICATION SITE VESICLES","APPLICATION SITE VESICLES",null,"APPLICATION SITE VESICLES",null,"HLT_0180",null,"HLGT_0576",null,"GENERAL DISORDERS AND ADMINISTRATION SITE CONDITIONS","GENERAL DISORDERS AND ADMINISTRATION SITE CONDITIONS",null,"MODERATE","N","N","N","N","N","N","N","N","PROBABLE","","NOT RECOVERED/NOT RESOLVED",10.0,"Y","","","Y","","","","DERMATOLOGIC EVENTS",""],["CDISCPILOT01","701","01-701-1146","Xanomeline High Dose",81,75,"65-80",2,"WHITE",1,"F","Y","2013-05-20","2013-06-26","2013-06-03","",15.0,null,null,null,"","FATIGUE","FATIGUE",null,"FATIGUE",null,"HLT_0043",null,"HLGT_0181",null,"GENERAL DISORDERS AND ADMINISTRATION SITE CONDITIONS","GENERAL DISORDERS AND ADMINISTRATION SITE CONDITIONS",null,"MILD","N","N","N","N","N","N","N","N","POSSIBLE","","NOT RECOVERED/NOT RESOLVED",4.0,"Y","","","Y","","","","",""],["CDISCPILOT01","701","01-701-1146","Xanomeline High Dose",81,75,"65-80",2,"WHITE",1,"F","Y","2013-05-20","2013-06-26","2013-05-16","",-4.0,"2013-06-02",14.0,18.0,"DAYS","RASH","RASH",null,"RASH",null,"HLT_0762",null,"HLGT_0198",null,"SKIN AND SUBCUTANEOUS TISSUE DISORDERS","SKIN AND SUBCUTANEOUS TISSUE DISORDERS",null,"MILD","N","N","N","N","N","N","N","N","NONE","","NOT RECOVERED/NOT RESOLVED",1.0,"","","","","","","","DERMATOLOGIC EVENTS",""],["CDISCPILOT01","701","01-701-1146","Xanomeline High Dose",81,75,"65-80",2,"WHITE",1,"F","Y","2013-05-20","2013-06-26","2013-05-16","",-4.0,"2013-06-02",14.0,18.0,"DAYS","RASH","RASH",null,"RASH",null,"HLT_0762",null,"HLGT_0198",null,"SKIN AND SUBCUTANEOUS TISSUE DISORDERS","SKIN AND SUBCUTANEOUS TISSUE DISORDERS",null,"MILD","N","N","N","N","N","N","N","N","NONE","","RECOVERED/RESOLVED",2.0,"","","","","","","","DERMATOLOGIC EVENTS",""],["CDISCPILOT01","701","01-701-1148","Xanomeline High Dose",81,57,"<65",1,"WHITE",1,"M","Y","2013-08-23","2014-02-20","2014-02-12","",174.0,null,null,null,"","ACTINIC KERATOSIS","ACTINIC KERATOSIS",null,"ACTINIC KERATOSIS",null,"HLT_0609",null,"HLGT_0490",null,"SKIN AND SUBCUTANEOUS TISSUE DISORDERS","SKIN AND SUBCUTANEOUS TISSUE DISORDERS",null,"MILD","N","N","N","N","N","N","N","N","NONE","","NOT RECOVERED/NOT RESOLVED",10.0,"Y","","Y","Y","","","","DERMATOLOGIC EVENTS",""],["CDISCPILOT01","701","01-701-1148","Xanomeline High Dose",81,57,"<65",1,"WHITE",1,"M","Y","2013-08-23","2014-02-20","2013-08-25","",3.0,null,null,null,"","APPLICATION SITE ERYTHEMA","APPLICATION SITE REDNESS",null,"APPLICATION SITE ERYTHEMA",null,"HLT_0617",null,"HLGT_0152",null,"GENERAL DISORDERS AND ADMINISTRATION SITE CONDITIONS","GENERAL DISORDERS AND ADMINISTRATION SITE CONDITIONS",null,"MILD","N","N","N","N","N","N","N","N","PROBABLE","","NOT RECOVERED/NOT RESOLVED",1.0,"Y","Y","Y","Y","","","","DERMATOLOGIC EVENTS","Y"],["CDISCPILOT01","701","01-701-1148","Xanomeline High Dose",81,57,"<65",1,"WHITE",1,"M","Y","2013-08-23","2014-02-20","2013-08-25","",3.0,null,null,null,"","APPLICATION SITE PRURITUS","APPLICATION SITE ITCHING",null,"APPLICATION SITE PRURITUS",null,"HLT_0317",null,"HLGT_0338",null,"GENERAL DISORDERS AND ADMINISTRATION SITE CONDITIONS","GENERAL DISORDERS AND ADMINISTRATION SITE CONDITIONS",null,"MILD","N","N","N","N","N","N","N","N","PROBABLE","","NOT RECOVERED/NOT RESOLVED",2.0,"Y","","","Y","","","","DERMATOLOGIC EVENTS",""],["CDISCPILOT01","701","01-701-1148","Xanomeline High Dose",81,57,"<65",1,"WHITE",1,"M","Y","2013-08-23","2014-02-20","2013-12-17","",117.0,"2013-12-17",117.0,1.0,"DAYS","CALCULUS URETHRAL","URETHRAL CALCULUS",null,"CALCULUS URETHRAL",null,"HLT_0550",null,"HLGT_0414",null,"RENAL AND URINARY DISORDERS","RENAL AND URINARY DISORDERS",null,"MODERATE","N","N","N","N","N","N","N","N","NONE","","RECOVERED/RESOLVED",6.0,"Y","","Y","Y","","","","",""],["CDISCPILOT01","701","01-701-1148","Xanomeline High Dose",81,57,"<65",1,"WHITE",1,"M","Y","2013-08-23","2014-02-20","2013-07-29","",-25.0,null,null,null,"","DEPRESSED MOOD","DEPRESSED MOOD",null,"DEPRESSED MOOD",null,"HLT_0784",null,"HLGT_0122",null,"PSYCHIATRIC DISORDERS","PSYCHIATRIC DISORDERS",null,"MODERATE","N","N","N","N","N","N","N","N","NONE","","NOT RECOVERED/NOT RESOLVED",9.0,"","","","","","","","",""],["CDISCPILOT01","701","01-701-1148","Xanomeline High Dose",81,57,"<65",1,"WHITE",1,"M","Y","2013-08-23","2014-02-20","2012-02-01","D",-569.0,null,null,null,"","DYSPEPSIA","INDIGESTION",null,"DYSPEPSIA",null,"HLT_0244",null,"HLGT_0716",null,"GASTROINTESTINAL DISORDERS","GASTROINTESTINAL DISORDERS",null,"MODERATE","N","N","N","N","N","N","N","N","NONE","","NOT RECOVERED/NOT RESOLVED",8.0,"","","","","","","","",""],["CDISCPILOT01","701","01-701-1148","Xanomeline High Dose",81,57,"<65",1,"WHITE",1,"M","Y","2013-08-23","2014-02-20","2014-01-03","",134.0,"2014-01-03",134.0,1.0,"DAYS","EPISTAXIS","NOSE BLEED",null,"EPISTAXIS",null,"HLT_0386",null,"HLGT_0577",null,"RESPIRATORY, THORACIC AND MEDIASTINAL DISORDERS","RESPIRATORY, THORACIC AND MEDIASTINAL DISORDERS",null,"MILD","N","N","N","N","N","N","N","N","NONE","","RECOVERED/RESOLVED",7.0,"Y","","Y","Y","","","","",""],["CDISCPILOT01","701","01-701-1148","Xanomeline High Dose",81,57,"<65",1,"WHITE",1,"M","Y","2013-08-23","2014-02-20","2013-12-15","",115.0,"2013-12-17",117.0,3.0,"DAYS","FLANK PAIN","FLANK PAIN",null,"FLANK PAIN",null,"HLT_0484",null,"HLGT_0543",null,"MUSCULOSKELETAL AND CONNECTIVE TISSUE DISORDERS","MUSCULOSKELETAL AND CONNECTIVE TISSUE DISORDERS",null,"MODERATE","N","N","N","N","N","N","N","N","NONE","","RECOVERED/RESOLVED",5.0,"Y","","Y","Y","","","","",""],["CDISCPILOT01","701","01-701-1148","Xanomeline High Dose",81,57,"<65",1,"WHITE",1,"M","Y","2013-08-23","2014-02-20","2013-10-12","",51.0,"2013-11-10",80.0,30.0,"DAYS","LOWER RESPIRATORY TRACT INFECTION","CHEST COLD",null,"LOWER RESPIRATORY TRACT INFECTION",null,"HLT_0052",null,"HLGT_0217",null,"INFECTIONS AND INFESTATIONS","INFECTIONS AND INFESTATIONS",null,"MODERATE","N","N","N","N","N","N","N","N","NONE","","NOT RECOVERED/NOT RESOLVED",3.0,"Y","","Y","Y","","","","",""],["CDISCPILOT01","701","01-701-1148","Xanomeline High Dose",81,57,"<65",1,"WHITE",1,"M","Y","2013-08-23","2014-02-20","2013-10-12","",51.0,"2013-11-10",80.0,30.0,"DAYS","LOWER RESPIRATORY TRACT INFECTION","CHEST COLD",null,"LOWER RESPIRATORY TRACT INFECTION",null,"HLT_0052",null,"HLGT_0217",null,"INFECTIONS AND INFESTATIONS","INFECTIONS AND INFESTATIONS",null,"MODERATE","N","N","N","N","N","N","N","N","NONE","","RECOVERED/RESOLVED",4.0,"Y","","","","","","","",""],["CDISCPILOT01","701","01-701-1153","Placebo",0,79,"65-80",2,"WHITE",1,"F","Y","2013-09-23","2014-03-16","2013-10-13","",21.0,"2013-11-06",45.0,25.0,"DAYS","INCREASED APPETITE","INCREASED APPETITE",null,"INCREASED APPETITE",null,"HLT_0566",null,"HLGT_0769",null,"METABOLISM AND NUTRITION DISORDERS","METABOLISM AND NUTRITION DISORDERS",null,"MILD","N","N","N","N","N","N","N","N","POSSIBLE","","NOT RECOVERED/NOT RESOLVED",1.0,"Y","Y","Y","Y","","","","",""],["CDISCPILOT01","701","01-701-1153","Placebo",0,79,"65-80",2,"WHITE",1,"F","Y","2013-09-23","2014-03-16","2013-10-13","",21.0,"2013-11-06",45.0,25.0,"DAYS","INCREASED APPETITE","INCREASED APPETITE",null,"INCREASED APPETITE",null,"HLT_0566",null,"HLGT_0769",null,"METABOLISM AND NUTRITION DISORDERS","METABOLISM AND NUTRITION DISORDERS",null,"MILD","N","N","N","N","N","N","N","N","POSSIBLE","","RECOVERED/RESOLVED",2.0,"Y","","","","","","","",""],["CDISCPILOT01","701","01-701-1180","Xanomeline High Dose",81,56,"<65",1,"WHITE",1,"M","Y","2013-02-12","2013-03-18","2013-03-19","",36.0,null,null,null,"","APPLICATION SITE ERYTHEMA","APPLICATION SITE ERYTHEMA",null,"APPLICATION SITE ERYTHEMA",null,"HLT_0617",null,"HLGT_0152",null,"GENERAL DISORDERS AND ADMINISTRATION SITE CONDITIONS","GENERAL DISORDERS AND ADMINISTRATION SITE CONDITIONS",null,"MODERATE","N","N","N","N","N","N","N","N","POSSIBLE","","NOT RECOVERED/NOT RESOLVED",9.0,"Y","","","Y","","","","DERMATOLOGIC EVENTS",""],["CDISCPILOT01","701","01-701-1180","Xanomeline High Dose",81,56,"<65",1,"WHITE",1,"M","Y","2013-02-12","2013-03-18","2013-03-19","",36.0,null,null,null,"","APPLICATION SITE PRURITUS","APPLICATION SITE ITCHING",null,"APPLICATION SITE PRURITUS",null,"HLT_0317",null,"HLGT_0338",null,"GENERAL DISORDERS AND ADMINISTRATION SITE CONDITIONS","GENERAL DISORDERS AND ADMINISTRATION SITE CONDITIONS",null,"MODERATE","N","N","N","N","N","N","N","N","POSSIBLE","","NOT RECOVERED/NOT RESOLVED",8.0,"Y","","","Y","","","","DERMATOLOGIC EVENTS",""],["CDISCPILOT01","701","01-701-1180","Xanomeline High Dose",81,56,"<65",1,"WHITE",1,"M","Y","2013-02-12","2013-03-18","2013-03-19","",36.0,null,null,null,"","APPLICATION SITE VESICLES","APPLICATION SITE BLISTER",null,"APPLICATION SITE VESICLES",null,"HLT_0180",null,"HLGT_0576",null,"GENERAL DISORDERS AND ADMINISTRATION SITE CONDITIONS","GENERAL DISORDERS AND ADMINISTRATION SITE CONDITIONS",null,"MODERATE","N","N","N","N","N","N","N","N","POSSIBLE","","NOT RECOVERED/NOT RESOLVED",7.0,"Y","","Y","Y","","","","DERMATOLOGIC EVENTS","Y"],["CDISCPILOT01","701","01-701-1180","Xanomeline High Dose",81,56,"<65",1,"WHITE",1,"M","Y","2013-02-12","2013-03-18",null,"",null,null,null,null,"","HEADACHE","HEADACHE",null,"HEADACHE",null,"HLT_0064",null,"HLGT_0344",null,"NERVOUS SYSTEM DISORDERS","NERVOUS SYSTEM DISORDERS",null,"MODERATE","N","N","N","N","N","N","N","N","NONE","","NOT RECOVERED/NOT RESOLVED",4.0,"","","","","","","","",""],["CDISCPILOT01","701","01-701-1180","Xanomeline High Dose",81,56,"<65",1,"WHITE",1,"M","Y","2013-02-12","2013-03-18","2013-02-15","",4.0,"2013-03-19",36.0,33.0,"DAYS","MICTURITION URGENCY","URINARY URGENCY",null,"MICTURITION URGENCY",null,"HLT_0294",null,"HLGT_0483",null,"RENAL AND URINARY DISORDERS","RENAL AND URINARY DISORDERS",null,"MILD","N","N","N","N","N","N","N","N","POSSIBLE","","NOT RECOVERED/NOT RESOLVED",3.0,"Y","","Y","Y","","","","",""],["CDISCPILOT01","701","01-701-1180","Xanomeline High Dose",81,56,"<65",1,"WHITE",1,"M","Y","2013-02-12","2013-03-18","2013-02-15","",4.0,"2013-03-19",36.0,33.0,"DAYS","MICTURITION URGENCY","URINARY URGENCY",null,"MICTURITION URGENCY",null,"HLT_0294",null,"HLGT_0483",null,"RENAL AND URINARY DISORDERS","RENAL AND URINARY DISORDERS",null,"MILD","N","N","N","N","N","N","N","N","POSSIBLE","","RECOVERED/RESOLVED",6.0,"Y","","","","","","","",""],["CDISCPILOT01","701","01-701-1180","Xanomeline High Dose",81,56,"<65",1,"WHITE",1,"M","Y","2013-02-12","2013-03-18","2013-03-06","",23.0,"2013-03-07",24.0,2.0,"DAYS","NASOPHARYNGITIS","COLD",null,"NASOPHARYNGITIS",null,"HLT_0036",null,"HLGT_0709",null,"INFECTIONS AND INFESTATIONS","INFECTIONS AND INFESTATIONS",null,"MILD","N","N","N","N","N","N","N","N","NONE","","RECOVERED/RESOLVED",5.0,"Y","","Y","Y","","","","",""],["CDISCPILOT01","701","01-701-1180","Xanomeline High Dose",81,56,"<65",1,"WHITE",1,"M","Y","2013-02-12","2013-03-18","2013-02-12","",1.0,"2013-02-12",1.0,1.0,"DAYS","VOMITING","VOMITING",null,"VOMITING",null,"HLT_0016",null,"HLGT_0350",null,"GASTROINTESTINAL DISORDERS","GASTROINTESTINAL DISORDERS",null,"MILD","N","N","N","N","N","N","N","N","NONE","","NOT RECOVERED/NOT RESOLVED",1.0,"Y","Y","Y","Y","","","","",""],["CDISCPILOT01","701","01-701-1180","Xanomeline High Dose",81,56,"<65",1,"WHITE",1,"M","Y","2013-02-12","2013-03-18","2013-02-12","",1.0,"2013-02-12",1.0,1.0,"DAYS","VOMITING","VOMITING",null,"VOMITING",null,"HLT_0016",null,"HLGT_0350",null,"GASTROINTESTINAL DISORDERS","GASTROINTESTINAL DISORDERS",null,"MILD","N","N","N","N","N","N","N","N","NONE","","RECOVERED/RESOLVED",2.0,"Y","","","","","","","",""],["CDISCPILOT01","701","01-701-1181","Xanomeline High Dose",81,79,"65-80",2,"WHITE",1,"F","Y","2013-12-05","2013-12-09","2013-12-09","",5.0,"2013-12-09",5.0,1.0,"DAYS","AGITATION","AGITATION",null,"AGITATION",null,"HLT_0140",null,"HLGT_0170",null,"PSYCHIATRIC DISORDERS","PSYCHIATRIC DISORDERS",null,"MODERATE","N","N","N","N","N","N","N","N","NONE","","RECOVERED/RESOLVED",1.0,"Y","Y","Y","Y","","","","",""],["CDISCPILOT01","701","01-701-1188","Xanomeline Low Dose",54,71,"65-80",2,"WHITE",1,"M","Y","2013-02-15","2013-03-24","2013-03-21","",35.0,null,null,null,"","APPLICATION SITE URTICARIA","APPLICATION SITE URTICARIA",null,"APPLICATION SITE URTICARIA",null,"HLT_0196",null,"HLGT_0233",null,"GENERAL DISORDERS AND ADMINISTRATION SITE CONDITIONS","GENERAL DISORDERS AND ADMINISTRATION SITE CONDITIONS",null,"MILD","N","N","N","N","N","N","N","N","PROBABLE","","NOT RECOVERED/NOT RESOLVED",7.0,"Y","","Y","Y","","","","DERMATOLOGIC EVENTS",""],["CDISCPILOT01","701","01-701-1188","Xanomeline Low Dose",54,71,"65-80",2,"WHITE",1,"M","Y","2013-02-15","2013-03-24","2013-02-16","",2.0,null,null,null,"","ERYTHEMA","ERYTHEMA",null,"ERYTHEMA",null,"HLT_0284",null,"HLGT_0192",null,"SKIN AND SUBCUTANEOUS TISSUE DISORDERS","SKIN AND SUBCUTANEOUS TISSUE DISORDERS",null,"MILD","N","N","N","N","N","N","N","N","PROBABLE","","NOT RECOVERED/NOT RESOLVED",1.0,"Y","Y","Y","Y","","","","DERMATOLOGIC EVENTS","Y"],["CDISCPILOT01","701","01-701-1188","Xanomeline Low Dose",54,71,"65-80",2,"WHITE",1,"M","Y","2013-02-15","2013-03-24","2013-02-16","",2.0,null,null,null,"","ERYTHEMA","ERYTHEMA",null,"ERYTHEMA",null,"HLT_0284",null,"HLGT_0192",null,"SKIN AND SUBCUTANEOUS TISSUE DISORDERS","SKIN AND SUBCUTANEOUS TISSUE DISORDERS",null,"MODERATE","N","N","N","N","N","N","N","N","PROBABLE","","NOT RECOVERED/NOT RESOLVED",3.0,"Y","","","","","","","DERMATOLOGIC EVENTS",""],["CDISCPILOT01","701","01-701-1188","Xanomeline Low Dose",54,71,"65-80",2,"WHITE",1,"M","Y","2013-02-15","2013-03-24","2013-02-16","",2.0,null,null,null,"","PRURITUS","ITCHING",null,"PRURITUS",null,"HLT_0778",null,"HLGT_0695",null,"SKIN AND SUBCUTANEOUS TISSUE DISORDERS","SKIN AND SUBCUTANEOUS TISSUE DISORDERS",null,"MILD","N","N","N","N","N","N","N","N","PROBABLE","","NOT RECOVERED/NOT RESOLVED",2.0,"Y","","","Y","","","","DERMATOLOGIC EVENTS",""],["CDISCPILOT01","701","01-701-1188","Xanomeline Low Dose",54,71,"65-80",2,"WHITE",1,"M","Y","2013-02-15","2013-03-24","2013-02-16","",2.0,null,null,null,"","PRURITUS","ITCHING",null,"PRURITUS",null,"HLT_0778",null,"HLGT_0695",null,"SKIN AND SUBCUTANEOUS TISSUE DISORDERS","SKIN AND SUBCUTANEOUS TISSUE DISORDERS",null,"MODERATE","N","N","N","N","N","N","N","N","PROBABLE","","NOT RECOVERED/NOT RESOLVED",4.0,"Y","","","","","","","DERMATOLOGIC EVENTS",""],["CDISCPILOT01","701","01-701-1188","Xanomeline Low Dose",54,71,"65-80",2,"WHITE",1,"M","Y","2013-02-15","2013-03-24","2013-03-04","",18.0,null,null,null,"","URTICARIA","WELTS",null,"URTICARIA",null,"HLT_0420",null,"HLGT_0705",null,"SKIN AND SUBCUTANEOUS TISSUE DISORDERS","SKIN AND SUBCUTANEOUS TISSUE DISORDERS",null,"MILD","N","N","N","N","N","N","N","N","PROBABLE","","NOT RECOVERED/NOT RESOLVED",5.0,"Y","","","Y","","","","DERMATOLOGIC EVENTS",""],["CDISCPILOT01","701","01-701-1188","Xanomeline Low Dose",54,71,"65-80",2,"WHITE",1,"M","Y","2013-02-15","2013-03-24","2013-03-04","",18.0,null,null,null,"","URTICARIA","WELTS",null,"URTICARIA",null,"HLT_0420",null,"HLGT_0705",null,"SKIN AND SUBCUTANEOUS TISSUE DISORDERS","SKIN AND SUBCUTANEOUS TISSUE DISORDERS",null,"MODERATE","N","N","N","N","N","N","N","N","PROBABLE","","NOT RECOVERED/NOT RESOLVED",6.0,"Y","","","","","","","DERMATOLOGIC EVENTS",""],["CDISCPILOT01","701","01-701-1188","Xanomeline Low Dose",54,71,"65-80",2,"WHITE",1,"M","Y","2013-02-15","2013-03-24","2013-03-21","",35.0,null,null,null,"","URTICARIA","WELTS",null,"URTICARIA",null,"HLT_0420",null,"HLGT_0705",null,"SKIN AND SUBCUTANEOUS TISSUE DISORDERS","SKIN AND SUBCUTANEOUS TISSUE DISORDERS",null,"MILD","N","N","N","N","N","N","N","N","PROBABLE","","NOT RECOVERED/NOT RESOLVED",8.0,"Y","","","","","","","DERMATOLOGIC EVENTS",""],["CDISCPILOT01","701","01-701-1192","Xanomeline Low Dose",54,80,"65-80",2,"WHITE",1,"F","Y","2012-07-22","2013-01-20","2012-12-05","",137.0,null,null,null,"","APPLICATION SITE ERYTHEMA","APPLICATION SITE REDNESS",null,"APPLICATION SITE ERYTHEMA",null,"HLT_0617",null,"HLGT_0152",null,"GENERAL DISORDERS AND ADMINISTRATION SITE CONDITIONS","GENERAL DISORDERS AND ADMINISTRATION SITE CONDITIONS",null,"MILD","N","N","N","N","N","N","N","N","PROBABLE","","NOT RECOVERED/NOT RESOLVED",13.0,"Y","","","Y","","","","DERMATOLOGIC EVENTS",""],["CDISCPILOT01","701","01-701-1192","Xanomeline Low Dose",54,80,"65-80",2,"WHITE",1,"F","Y","2012-07-22","2013-01-20","2012-12-05","",137.0,"2012-12-16",148.0,12.0,"DAYS","APPLICATION SITE IRRITATION","APPLICATION SITE BURNING",null,"APPLICATION SITE IRRITATION",null,"HLT_0061",null,"HLGT_0346",null,"GENERAL DISORDERS AND ADMINISTRATION SITE CONDITIONS","GENERAL DISORDERS AND ADMINISTRATION SITE CONDITIONS",null,"MILD","N","N","N","N","N","N","N","N","PROBABLE","","NOT RECOVERED/NOT RESOLVED",12.0,"Y","","","Y","","","","DERMATOLOGIC EVENTS",""],["CDISCPILOT01","701","01-701-1192","Xanomeline Low Dose",54,80,"65-80",2,"WHITE",1,"F","Y","2012-07-22","2013-01-20","2012-12-05","",137.0,"2012-12-16",148.0,12.0,"DAYS","APPLICATION SITE IRRITATION","APPLICATION SITE BURNING",null,"APPLICATION SITE IRRITATION",null,"HLT_0061",null,"HLGT_0346",null,"GENERAL DISORDERS AND ADMINISTRATION SITE CONDITIONS","GENERAL DISORDERS AND ADMINISTRATION SITE CONDITIONS",null,"MILD","N","N","N","N","N","N","N","N","PROBABLE","","RECOVERED/RESOLVED",15.0,"Y","","","","","","","DERMATOLOGIC EVENTS",""],["CDISCPILOT01","701","01-701-1192","Xanomeline Low Dose",54,80,"65-80",2,"WHITE",1,"F","Y","2012-07-22","2013-01-20","2012-12-05","",137.0,null,null,null,"","APPLICATION SITE PRURITUS","APPLICATION SITE ITCHING",null,"APPLICATION SITE PRURITUS",null,"HLT_0317",null,"HLGT_0338",null,"GENERAL DISORDERS AND ADMINISTRATION SITE CONDITIONS","GENERAL DISORDERS AND ADMINISTRATION SITE CONDITIONS",null,"MILD","N","N","N","N","N","N","N","N","PROBABLE","","NOT RECOVERED/NOT RESOLVED",14.0,"Y","","","Y","","","","DERMATOLOGIC EVENTS",""],["CDISCPILOT01","701","01-701-1192","Xanomeline Low Dose",54,80,"65-80",2,"WHITE",1,"F","Y","2012-07-22","2013-01-20","2010-06-01","D",-782.0,null,null,null,"","COUGH","COUGH",null,"COUGH",null,"HLT_0701",null,"HLGT_0280",null,"RESPIRATORY, THORACIC AND MEDIASTINAL DISORDERS","RESPIRATORY, THORACIC AND MEDIASTINAL DISORDERS",null,"MODERATE","N","N","N","N","N","N","N","N","NONE","","NOT RECOVERED/NOT RESOLVED",4.0,"","","","","","","","",""],["CDISCPILOT01","701","01-701-1192","Xanomeline Low Dose",54,80,"65-80",2,"WHITE",1,"F","Y","2012-07-22","2013-01-20","2010-06-01","D",-782.0,null,null,null,"","COUGH","COUGH",null,"COUGH",null,"HLT_0701",null,"HLGT_0280",null,"RESPIRATORY, THORACIC AND MEDIASTINAL DISORDERS","RESPIRATORY, THORACIC AND MEDIASTINAL DISORDERS",null,"MILD","N","N","N","N","N","N","N","N","NONE","","NOT RECOVERED/NOT RESOLVED",9.0,"","","","","","","","",""],["CDISCPILOT01","701","01-701-1192","Xanomeline Low Dose",54,80,"65-80",2,"WHITE",1,"F","Y","2012-07-22","2013-01-20","2012-08-07","",17.0,"2012-09-14",55.0,39.0,"DAYS","ERYTHEMA","ERYTHEMA FACIAL",null,"ERYTHEMA",null,"HLT_0284",null,"HLGT_0192",null,"SKIN AND SUBCUTANEOUS TISSUE DISORDERS","SKIN AND SUBCUTANEOUS TISSUE DISORDERS",null,"MILD","N","N","N","N","N","N","N","N","NONE","","NOT RECOVERED/NOT RESOLVED",3.0,"Y","","Y","Y","","","","DERMATOLOGIC EVENTS","Y"],["CDISCPILOT01","701","01-701-1192","Xanomeline Low Dose",54,80,"65-80",2,"WHITE",1,"F","Y","2012-07-22","2013-01-20","2012-08-07","",17.0,"2012-09-14",55.0,39.0,"DAYS","ERYTHEMA","ERYTHEMA FACIAL",null,"ERYTHEMA",null,"HLT_0284",null,"HLGT_0192",null,"SKIN AND SUBCUTANEOUS TISSUE DISORDERS","SKIN AND SUBCUTANEOUS TISSUE DISORDERS",null,"MILD","N","N","N","N","N","N","N","N","NONE","","RECOVERED/RESOLVED",6.0,"Y","","","","","","","DERMATOLOGIC EVENTS",""],["CDISCPILOT01","701","01-701-1192","Xanomeline Low Dose",54,80,"65-80",2,"WHITE",1,"F","Y","2012-07-22","2013-01-20","2012-09-07","",48.0,"2012-09-30",71.0,24.0,"DAYS","MUSCULAR WEAKNESS","MUSCULAR WEAKNESS",null,"MUSCULAR WEAKNESS",null,"HLT_0444",null,"HLGT_0211",null,"MUSCULOSKELETAL AND CONNECTIVE TISSUE DISORDERS","MUSCULOSKELETAL AND CONNECTIVE TISSUE DISORDERS",null,"MODERATE","N","N","N","N","N","N","N","N","NONE","","NOT RECOVERED/NOT RESOLVED",8.0,"Y","","Y","Y","","","","",""],["CDISCPILOT01","701","01-701-1192","Xanomeline Low Dose",54,80,"65-80",2,"WHITE",1,"F","Y","2012-07-22","2013-01-20","2012-09-07","",48.0,"2012-09-30",71.0,24.0,"DAYS","MUSCULAR WEAKNESS","MUSCULAR WEAKNESS",null,"MUSCULAR WEAKNESS",null,"HLT_0444",null,"HLGT_0211",null,"MUSCULOSKELETAL AND CONNECTIVE TISSUE DISORDERS","MUSCULOSKELETAL AND CONNECTIVE TISSUE DISORDERS",null,"MODERATE","N","N","N","N","N","N","N","N","NONE","","RECOVERED/RESOLVED",11.0,"Y","","","","","","","",""],["CDISCPILOT01","701","01-701-1192","Xanomeline Low Dose",54,80,"65-80",2,"WHITE",1,"F","Y","2012-07-22","2013-01-20","2012-08-03","",13.0,"2012-08-03",13.0,1.0,"DAYS","NASAL MUCOSA BIOPSY","NASAL MUCOSA BIOPSY",null,"NASAL MUCOSA BIOPSY",null,"HLT_0680",null,"HLGT_0396",null,"INVESTIGATIONS","INVESTIGATIONS",null,"MILD","N","N","N","N","N","N","N","N","NONE","","RECOVERED/RESOLVED",1.0,"Y","Y","Y","Y","","","","",""],["CDISCPILOT01","701","01-701-1192","Xanomeline Low Dose",54,80,"65-80",2,"WHITE",1,"F","Y","2012-07-22","2013-01-20","2012-09-07","",48.0,"2012-10-06",77.0,30.0,"DAYS","PNEUMONIA","PNEUMONIA",null,"PNEUMONIA",null,"HLT_0251",null,"HLGT_0671",null,"INFECTIONS AND INFESTATIONS","INFECTIONS AND INFESTATIONS",null,"MODERATE","N","N","N","N","N","Y","N","N","NONE","","NOT RECOVERED/NOT RESOLVED",7.0,"Y","","Y","Y","","","","",""],["CDISCPILOT01","701","01-701-1192","Xanomeline Low Dose",54,80,"65-80",2,"WHITE",1,"F","Y","2012-07-22","2013-01-20","2012-09-07","",48.0,"2012-10-06",77.0,30.0,"DAYS","PNEUMONIA","PNEUMONIA",null,"PNEUMONIA",null,"HLT_0251",null,"HLGT_0671",null,"INFECTIONS AND INFESTATIONS","INFECTIONS AND INFESTATIONS",null,"MODERATE","N","N","N","N","N","Y","N","N","NONE","","RECOVERED/RESOLVED",10.0,"Y","","","","","","","",""],["CDISCPILOT01","701","01-701-1192","Xanomeline Low Dose",54,80,"65-80",2,"WHITE",1,"F","Y","2012-07-22","2013-01-20","2012-08-07","",17.0,"2012-09-14",55.0,39.0,"DAYS","SECRETION DISCHARGE","SECRETION DISCHARGE",null,"SECRETION DISCHARGE",null,"HLT_0683",null,"HLGT_0575",null,"GENERAL DISORDERS AND ADMINISTRATION SITE CONDITIONS","GENERAL DISORDERS AND ADMINISTRATION SITE CONDITIONS",null,"MILD","N","N","N","N","N","N","N","N","NONE","","NOT RECOVERED/NOT RESOLVED",2.0,"Y","","Y","Y","","","","",""],["CDISCPILOT01","701","01-701-1192","Xanomeline Low Dose",54,80,"65-80",2,"WHITE",1,"F","Y","2012-07-22","2013-01-20","2012-08-07","",17.0,"2012-09-14",55.0,39.0,"DAYS","SECRETION DISCHARGE","SECRETION DISCHARGE",null,"SECRETION DISCHARGE",null,"HLT_0683",null,"HLGT_0575",null,"GENERAL DISORDERS AND ADMINISTRATION SITE CONDITIONS","GENERAL DISORDERS AND ADMINISTRATION SITE CONDITIONS",null,"MILD","N","N","N","N","N","N","N","N","NONE","","RECOVERED/RESOLVED",5.0,"Y","","","","","","","",""],["CDISCPILOT01","701","01-701-1203","Placebo",0,81,">80",3,"BLACK OR AFRICAN AMERICAN",2,"F","Y","2013-02-02","2013-08-03","2013-03-21","",48.0,"2013-03-21",48.0,1.0,"DAYS","EYE LASER SURGERY","EYE LASER SURGERY",null,"EYE LASER SURGERY",null,"HLT_0355",null,"HLGT_0189",null,"SURGICAL AND MEDICAL PROCEDURES","SURGICAL AND MEDICAL PROCEDURES",null,"MILD","N","N","N","N","N","N","N","N","NONE","","RECOVERED/RESOLVED",1.0,"Y","Y","Y","Y","","","","",""],["CDISCPILOT01","701","01-701-1211","Xanomeline Low Dose",54,76,"65-80",2,"WHITE",1,"F","Y","2012-11-15","2013-01-12","2012-11-29","",15.0,null,null,null,"","APPLICATION SITE ERYTHEMA","APPLICATION SITE REDNESS",null,"APPLICATION SITE ERYTHEMA",null,"HLT_0617",null,"HLGT_0152",null,"GENERAL DISORDERS AND ADMINISTRATION SITE CONDITIONS","GENERAL DISORDERS AND ADMINISTRATION SITE CONDITIONS",null,"MILD","N","N","N","N","N","N","N","N","POSSIBLE","","NOT RECOVERED/NOT RESOLVED",5.0,"Y","","","Y","","","","DERMATOLOGIC EVENTS",""],["CDISCPILOT01","701","01-701-1211","Xanomeline Low Dose",54,76,"65-80",2,"WHITE",1,"F","Y","2012-11-15","2013-01-12","2012-11-16","",2.0,null,null,null,"","APPLICATION SITE PRURITUS","APPLICATION SITE ITCHING",null,"APPLICATION SITE PRURITUS",null,"HLT_0317",null,"HLGT_0338",null,"GENERAL DISORDERS AND ADMINISTRATION SITE CONDITIONS","GENERAL DISORDERS AND ADMINISTRATION SITE CONDITIONS",null,"MILD","N","N","N","N","N","N","N","N","POSSIBLE","","NOT RECOVERED/NOT RESOLVED",1.0,"Y","Y","Y","Y","","","","DERMATOLOGIC EVENTS","Y"],["CDISCPILOT01","701","01-701-1211","Xanomeline Low Dose",54,76,"65-80",2,"WHITE",1,"F","Y","2012-11-15","2013-01-12","2013-01-11","",58.0,null,null,null,"","CONFUSIONAL STATE","CONFUSION",null,"CONFUSIONAL STATE",null,"HLT_0642",null,"HLGT_0329",null,"PSYCHIATRIC DISORDERS","PSYCHIATRIC DISORDERS",null,"MODERATE","N","N","N","N","N","N","N","N","NONE","","NOT RECOVERED/NOT RESOLVED",7.0,"Y","","Y","Y","","","","",""],["CDISCPILOT01","701","01-701-1211","Xanomeline Low Dose",54,76,"65-80",2,"WHITE",1,"F","Y","2012-11-15","2013-01-12","2013-01-11","",58.0,null,null,null,"","DYSPNOEA","SHORTNESS OF BREATH",null,"DYSPNOEA",null,"HLT_0296",null,"HLGT_0255",null,"RESPIRATORY, THORACIC AND MEDIASTINAL DISORDERS","RESPIRATORY, THORACIC AND MEDIASTINAL DISORDERS",null,"MODERATE","N","N","N","N","N","N","N","N","NONE","","NOT RECOVERED/NOT RESOLVED",8.0,"Y","","Y","Y","","","","",""],["CDISCPILOT01","701","01-701-1211","Xanomeline Low Dose",54,76,"65-80",2,"WHITE",1,"F","Y","2012-11-15","2013-01-12","2012-11-22","",8.0,null,null,null,"","INCONTINENCE","INCONTINENCE",null,"INCONTINENCE",null,"HLT_0560",null,"HLGT_0503",null,"RENAL AND URINARY DISORDERS","RENAL AND URINARY DISORDERS",null,"MILD","N","N","N","N","N","N","N","N","NONE","","NOT RECOVERED/NOT RESOLVED",4.0,"Y","","Y","Y","","","","",""],["CDISCPILOT01","701","01-701-1211","Xanomeline Low Dose",54,76,"65-80",2,"WHITE",1,"F","Y","2012-11-15","2013-01-12","2012-11-21","",7.0,"2012-11-21",7.0,1.0,"DAYS","JOINT DISLOCATION","SHOULDER DISLOCATION",null,"JOINT DISLOCATION",null,"HLT_0035",null,"HLGT_0227",null,"INJURY, POISONING AND PROCEDURAL COMPLICATIONS","INJURY, POISONING AND PROCEDURAL COMPLICATIONS",null,"MODERATE","N","N","N","N","N","N","N","N","NONE","","RECOVERED/RESOLVED",2.0,"Y","","Y","Y","","","","",""],["CDISCPILOT01","701","01-701-1211","Xanomeline Low Dose",54,76,"65-80",2,"WHITE",1,"F","Y","2012-11-15","2013-01-12","2012-11-21","",7.0,null,null,null,"","SHOULDER PAIN","SHOULDER PAIN",null,"SHOULDER PAIN",null,"HLT_0527",null,"HLGT_0288",null,"MUSCULOSKELETAL AND CONNECTIVE TISSUE DISORDERS","MUSCULOSKELETAL AND CONNECTIVE TISSUE DISORDERS",null,"MILD","N","N","N","N","N","N","N","N","NONE","","NOT RECOVERED/NOT RESOLVED",3.0,"Y","","Y","Y","","","","",""],["CDISCPILOT01","701","01-701-1211","Xanomeline Low Dose",54,76,"65-80",2,"WHITE",1,"F","Y","2012-11-15","2013-01-12","2012-12-09","",25.0,null,null,null,"","SKIN LACERATION","LACERATION OF FACE",null,"SKIN LACERATION",null,"HLT_0075",null,"HLGT_0118",null,"INJURY, POISONING AND PROCEDURAL COMPLICATIONS","INJURY, POISONING AND PROCEDURAL COMPLICATIONS",null,"MILD","N","N","N","N","N","N","N","N","NONE","","NOT RECOVERED/NOT RESOLVED",6.0,"Y","","","Y","","","","",""],["CDISCPILOT01","701","01-701-1211","Xanomeline Low Dose",54,76,"65-80",2,"WHITE",1,"F","Y","2012-11-15","2013-01-12","2013-01-14","",61.0,"2013-01-14",61.0,1.0,"DAYS","SUDDEN DEATH","SUDDEN DEATH",null,"SUDDEN DEATH",null,"HLT_0142",null,"HLGT_0272",null,"GENERAL DISORDERS AND ADMINISTRATION SITE CONDITIONS","GENERAL DISORDERS AND ADMINISTRATION SITE CONDITIONS",null,"SEVERE","N","N","N","N","Y","N","Y","N","NONE","","FATAL",9.0,"Y","","","Y","","","","",""],["CDISCPILOT01","701","01-701-1239","Xanomeline High Dose",81,56,"<65",1,"WHITE",1,"M","Y","2014-01-11","2014-07-10","2014-01-20","",10.0,"2014-02-08",29.0,20.0,"DAYS","APPLICATION SITE IRRITATION","APPLICATION SITE IRRITATION",null,"APPLICATION SITE IRRITATION",null,"HLT_0061",null,"HLGT_0346",null,"GENERAL DISORDERS AND ADMINISTRATION SITE CONDITIONS","GENERAL DISORDERS AND ADMINISTRATION SITE CONDITIONS",null,"MILD","N","N","N","N","N","N","N","N","PROBABLE","","NOT RECOVERED/NOT RESOLVED",4.0,"Y","","Y","Y","","","","DERMATOLOGIC EVENTS",""],["CDISCPILOT01","701","01-701-1239","Xanomeline High Dose",81,56,"<65",1,"WHITE",1,"M","Y","2014-01-11","2014-07-10","2014-01-20","",10.0,"2014-02-08",29.0,20.0,"DAYS","APPLICATION SITE IRRITATION","APPLICATION SITE IRRITATION",null,"APPLICATION SITE IRRITATION",null,"HLT_0061",null,"HLGT_0346",null,"GENERAL DISORDERS AND ADMINISTRATION SITE CONDITIONS","GENERAL DISORDERS AND ADMINISTRATION SITE CONDITIONS",null,"MILD","N","N","N","N","N","N","N","N","PROBABLE","","RECOVERED/RESOLVED",5.0,"Y","","","","","","","DERMATOLOGIC EVENTS",""],["CDISCPILOT01","701","01-701-1239","Xanomeline High Dose",81,56,"<65",1,"WHITE",1,"M","Y","2014-01-11","2014-07-10","2014-01-12","",2.0,null,null,null,"","ERYTHEMA","ERYTHEMA",null,"ERYTHEMA",null,"HLT_0284",null,"HLGT_0192",null,"SKIN AND SUBCUTANEOUS TISSUE DISORDERS","SKIN AND SUBCUTANEOUS TISSUE DISORDERS",null,"MILD","N","N","N","N","N","N","N","N","POSSIBLE","","NOT RECOVERED/NOT RESOLVED",1.0,"Y","Y","Y","Y","","","","DERMATOLOGIC EVENTS","Y"],["CDISCPILOT01","701","01-701-1239","Xanomeline High Dose",81,56,"<65",1,"WHITE",1,"M","Y","2014-01-11","2014-07-10","2014-01-12","",2.0,null,null,null,"","ERYTHEMA","ERYTHEMA",null,"ERYTHEMA",null,"HLT_0284",null,"HLGT_0192",null,"SKIN AND SUBCUTANEOUS TISSUE DISORDERS","SKIN AND SUBCUTANEOUS TISSUE DISORDERS",null,"MODERATE","N","N","N","N","N","N","N","N","POSSIBLE","","NOT RECOVERED/NOT RESOLVED",6.0,"Y","","","","","","","DERMATOLOGIC EVENTS",""],["CDISCPILOT01","701","01-701-1239","Xanomeline High Dose",81,56,"<65",1,"WHITE",1,"M","Y","2014-01-11","2014-07-10","2014-03-01","D",50.0,null,null,null,"","FATIGUE","FATIGUE",null,"FATIGUE",null,"HLT_0043",null,"HLGT_0181",null,"GENERAL DISORDERS AND ADMINISTRATION SITE CONDITIONS","GENERAL DISORDERS AND ADMINISTRATION SITE CONDITIONS",null,"MILD","N","N","N","N","N","N","N","N","REMOTE","","NOT RECOVERED/NOT RESOLVED",9.0,"Y","","","Y","","","","",""],["CDISCPILOT01","701","01-701-1239","Xanomeline High Dose",81,56,"<65",1,"WHITE",1,"M","Y","2014-01-11","2014-07-10","2014-04-01","D",81.0,null,null,null,"","HORDEOLUM","STYE",null,"HORDEOLUM",null,"HLT_0604",null,"HLGT_0290",null,"INFECTIONS AND INFESTATIONS","INFECTIONS AND INFESTATIONS",null,"MILD","N","N","N","N","N","N","N","N","NONE","","NOT RECOVERED/NOT RESOLVED",10.0,"Y","","","Y","","","","",""],["CDISCPILOT01","701","01-701-1239","Xanomeline High Dose",81,56,"<65",1,"WHITE",1,"M","Y","2014-01-11","2014-07-10","2014-01-13","",3.0,null,null,null,"","PRURITUS","ITCHING",null,"PRURITUS",null,"HLT_0778",null,"HLGT_0695",null,"SKIN AND SUBCUTANEOUS TISSUE DISORDERS","SKIN AND SUBCUTANEOUS TISSUE DISORDERS",null,"MILD","N","N","N","N","N","N","N","N","POSSIBLE","","NOT RECOVERED/NOT RESOLVED",3.0,"Y","","","Y","","","","DERMATOLOGIC EVENTS",""],["CDISCPILOT01","701","01-701-1239","Xanomeline High Dose",81,56,"<65",1,"WHITE",1,"M","Y","2014-01-11","2014-07-10","2014-01-12","",2.0,null,null,null,"","SKIN ODOUR ABNORMAL","SKIN ODOR ABNORMAL",null,"SKIN ODOUR ABNORMAL",null,"HLT_0510",null,"HLGT_0184",null,"SKIN AND SUBCUTANEOUS TISSUE DISORDERS","SKIN AND SUBCUTANEOUS TISSUE DISORDERS",null,"MILD","N","N","N","N","N","N","N","N","REMOTE","","NOT RECOVERED/NOT RESOLVED",2.0,"Y","","","Y","","","","DERMATOLOGIC EVENTS",""],["CDISCPILOT01","701","01-701-1239","Xanomeline High Dose",81,56,"<65",1,"WHITE",1,"M","Y","2014-01-11","2014-07-10","2014-02-20","",41.0,"2014-03-12",61.0,21.0,"DAYS","UPPER RESPIRATORY TRACT INFECTION","UPPER RESPIRATORY INFECTION",null,"UPPER RESPIRATORY TRACT INFECTION",null,"HLT_0520",null,"HLGT_0489",null,"INFECTIONS AND INFESTATIONS","INFECTIONS AND INFESTATIONS",null,"MILD","N","N","N","N","N","N","N","N","NONE","","NOT RECOVERED/NOT RESOLVED",7.0,"Y","","Y","Y","","","","",""],["CDISCPILOT01","701","01-701-1239","Xanomeline High Dose",81,56,"<65",1,"WHITE",1,"M","Y","2014-01-11","2014-07-10","2014-02-20","",41.0,"2014-03-12",61.0,21.0,"DAYS","UPPER RESPIRATORY TRACT INFECTION","UPPER RESPIRATORY INFECTION",null,"UPPER RESPIRATORY TRACT INFECTION",null,"HLT_0520",null,"HLGT_0489",null,"INFECTIONS AND INFESTATIONS","INFECTIONS AND INFESTATIONS",null,"MILD","N","N","N","N","N","N","N","N","NONE","","RECOVERED/RESOLVED",8.0,"Y","","","","","","","",""],["CDISCPILOT01","701","01-701-1275","Xanomeline High Dose",81,61,"<65",1,"AMERICAN INDIAN OR ALASKA NATIVE",6,"M","Y","2014-02-07","2014-05-31","2014-03-12","",34.0,"2014-03-27",49.0,16.0,"DAYS","COUGH","COUGH",null,"COUGH",null,"HLT_0701",null,"HLGT_0280",null,"RESPIRATORY, THORACIC AND MEDIASTINAL DISORDERS","RESPIRATORY, THORACIC AND MEDIASTINAL DISORDERS",null,"MILD","N","N","N","N","N","N","N","N","NONE","","NOT RECOVERED/NOT RESOLVED",7.0,"Y","","Y","Y","","","","",""],["CDISCPILOT01","701","01-701-1275","Xanomeline High Dose",81,61,"<65",1,"AMERICAN INDIAN OR ALASKA NATIVE",6,"M","Y","2014-02-07","2014-05-31","2014-03-12","",34.0,"2014-03-27",49.0,16.0,"DAYS","COUGH","COUGH",null,"COUGH",null,"HLT_0701",null,"HLGT_0280",null,"RESPIRATORY, THORACIC AND MEDIASTINAL DISORDERS","RESPIRATORY, THORACIC AND MEDIASTINAL DISORDERS",null,"MILD","N","N","N","N","N","N","N","N","NONE","","RECOVERED/RESOLVED",9.0,"Y","","","","","","","",""],["CDISCPILOT01","701","01-701-1275","Xanomeline High Dose",81,61,"<65",1,"AMERICAN INDIAN OR ALASKA NATIVE",6,"M","Y","2014-02-07","2014-05-31","2014-02-24","",18.0,"2014-06-12",126.0,109.0,"DAYS","ERYTHEMA","ERYTHEMA",null,"ERYTHEMA",null,"HLT_0284",null,"HLGT_0192",null,"SKIN AND SUBCUTANEOUS TISSUE DISORDERS","SKIN AND SUBCUTANEOUS TISSUE DISORDERS",null,"MILD","N","N","N","N","N","N","N","N","POSSIBLE","","NOT RECOVERED/NOT RESOLVED",3.0,"Y","","Y","Y","","","","DERMATOLOGIC EVENTS","Y"],["CDISCPILOT01","701","01-701-1275","Xanomeline High Dose",81,61,"<65",1,"AMERICAN INDIAN OR ALASKA NATIVE",6,"M","Y","2014-02-07","2014-05-31","2014-02-24","",18.0,"2014-06-12",126.0,109.0,"DAYS","ERYTHEMA","ERYTHEMA",null,"ERYTHEMA",null,"HLT_0284",null,"HLGT_0192",null,"SKIN AND SUBCUTANEOUS TISSUE DISORDERS","SKIN AND SUBCUTANEOUS TISSUE DISORDERS",null,"MILD","N","N","N","N","N","N","N","N","POSSIBLE","","RECOVERED/RESOLVED",12.0,"Y","","","","","","","DERMATOLOGIC EVENTS",""],["CDISCPILOT01","701","01-701-1275","Xanomeline High Dose",81,61,"<65",1,"AMERICAN INDIAN OR ALASKA NATIVE",6,"M","Y","2014-02-07","2014-05-31","2014-03-12","",34.0,"2014-03-27",49.0,16.0,"DAYS","NASAL CONGESTION","NASAL CONGESTION",null,"NASAL CONGESTION",null,"HLT_0118",null,"HLGT_0549",null,"RESPIRATORY, THORACIC AND MEDIASTINAL DISORDERS","RESPIRATORY, THORACIC AND MEDIASTINAL DISORDERS",null,"MILD","N","N","N","N","N","N","N","N","NONE","","NOT RECOVERED/NOT RESOLVED",8.0,"Y","","","Y","","","","",""],["CDISCPILOT01","701","01-701-1275","Xanomeline High Dose",81,61,"<65",1,"AMERICAN INDIAN OR ALASKA NATIVE",6,"M","Y","2014-02-07","2014-05-31","2014-03-12","",34.0,"2014-03-27",49.0,16.0,"DAYS","NASAL CONGESTION","NASAL CONGESTION",null,"NASAL CONGESTION",null,"HLT_0118",null,"HLGT_0549",null,"RESPIRATORY, THORACIC AND MEDIASTINAL DISORDERS","RESPIRATORY, THORACIC AND MEDIASTINAL DISORDERS",null,"MILD","N","N","N","N","N","N","N","N","NONE","","RECOVERED/RESOLVED",10.0,"Y","","","","","","","",""],["CDISCPILOT01","701","01-701-1275","Xanomeline High Dose",81,61,"<65",1,"AMERICAN INDIAN OR ALASKA NATIVE",6,"M","Y","2014-02-07","2014-05-31","2014-02-13","",7.0,"2014-06-03",117.0,111.0,"DAYS","NAUSEA","NAUSEA",null,"NAUSEA",null,"HLT_0742",null,"HLGT_0326",null,"GASTROINTESTINAL DISORDERS","GASTROINTESTINAL DISORDERS",null,"MILD","N","N","N","N","N","N","N","N","POSSIBLE","","NOT RECOVERED/NOT RESOLVED",1.0,"Y","Y","Y","Y","","","","",""],["CDISCPILOT01","701","01-701-1275","Xanomeline High Dose",81,61,"<65",1,"AMERICAN INDIAN OR ALASKA NATIVE",6,"M","Y","2014-02-07","2014-05-31","2014-02-13","",7.0,"2014-06-03",117.0,111.0,"DAYS","NAUSEA","NAUSEA",null,"NAUSEA",null,"HLT_0742",null,"HLGT_0326",null,"GASTROINTESTINAL DISORDERS","GASTROINTESTINAL DISORDERS",null,"MILD","N","N","N","N","N","N","N","N","POSSIBLE","","RECOVERED/RESOLVED",11.0,"Y","","","","","","","",""],["CDISCPILOT01","701","01-701-1275","Xanomeline High Dose",81,61,"<65",1,"AMERICAN INDIAN OR ALASKA NATIVE",6,"M","Y","2014-02-07","2014-05-31","2014-02-24","",18.0,"2014-06-03",117.0,100.0,"DAYS","PAROSMIA","STRANGE SMELL SENSATION",null,"PAROSMIA",null,"HLT_0258",null,"HLGT_0471",null,"NERVOUS SYSTEM DISORDERS","NERVOUS SYSTEM DISORDERS",null,"MILD","N","N","N","N","N","N","N","N","POSSIBLE","","NOT RECOVERED/NOT RESOLVED",5.0,"Y","","Y","Y","","","","",""],["CDISCPILOT01","701","01-701-1275","Xanomeline High Dose",81,61,"<65",1,"AMERICAN INDIAN OR ALASKA NATIVE",6,"M","Y","2014-02-07","2014-05-31","2014-02-24","",18.0,"2014-06-03",117.0,100.0,"DAYS","PAROSMIA","STRANGE SMELL SENSATION",null,"PAROSMIA",null,"HLT_0258",null,"HLGT_0471",null,"NERVOUS SYSTEM DISORDERS","NERVOUS SYSTEM DISORDERS",null,"MILD","N","N","N","N","N","N","N","N","POSSIBLE","","RECOVERED/RESOLVED",14.0,"Y","","","","","","","",""],["CDISCPILOT01","701","01-701-1275","Xanomeline High Dose",81,61,"<65",1,"AMERICAN INDIAN OR ALASKA NATIVE",6,"M","Y","2014-02-07","2014-05-31","2014-02-24","",18.0,"2014-06-12",126.0,109.0,"DAYS","PRURITUS","ITCHING",null,"PRURITUS",null,"HLT_0778",null,"HLGT_0695",null,"SKIN AND SUBCUTANEOUS TISSUE DISORDERS","SKIN AND SUBCUTANEOUS TISSUE DISORDERS",null,"MILD","N","N","N","N","N","N","N","N","POSSIBLE","","NOT RECOVERED/NOT RESOLVED",6.0,"Y","","","Y","","","","DERMATOLOGIC EVENTS",""],["CDISCPILOT01","701","01-701-1275","Xanomeline High Dose",81,61,"<65",1,"AMERICAN INDIAN OR ALASKA NATIVE",6,"M","Y","2014-02-07","2014-05-31","2014-02-24","",18.0,"2014-06-12",126.0,109.0,"DAYS","PRURITUS","ITCHING",null,"PRURITUS",null,"HLT_0778",null,"HLGT_0695",null,"SKIN AND SUBCUTANEOUS TISSUE DISORDERS","SKIN AND SUBCUTANEOUS TISSUE DISORDERS",null,"MILD","N","N","N","N","N","N","N","N","POSSIBLE","","RECOVERED/RESOLVED",15.0,"Y","","","","","","","DERMATOLOGIC EVENTS",""],["CDISCPILOT01","701","01-701-1275","Xanomeline High Dose",81,61,"<65",1,"AMERICAN INDIAN OR ALASKA NATIVE",6,"M","Y","2014-02-07","2014-05-31","2014-02-24","",18.0,"2014-06-03",117.0,100.0,"DAYS","SALIVARY HYPERSECRETION","HYPERSALIVATION",null,"SALIVARY HYPERSECRETION",null,"HLT_0374",null,"HLGT_0488",null,"GASTROINTESTINAL DISORDERS","GASTROINTESTINAL DISORDERS",null,"MILD","N","N","N","N","N","N","N","N","POSSIBLE","","NOT RECOVERED/NOT RESOLVED",4.0,"Y","","","Y","","","","",""],["CDISCPILOT01","701","01-701-1275","Xanomeline High Dose",81,61,"<65",1,"AMERICAN INDIAN OR ALASKA NATIVE",6,"M","Y","2014-02-07","2014-05-31","2014-02-24","",18.0,"2014-06-03",117.0,100.0,"DAYS","SALIVARY HYPERSECRETION","HYPERSALIVATION",null,"SALIVARY HYPERSECRETION",null,"HLT_0374",null,"HLGT_0488",null,"GASTROINTESTINAL DISORDERS","GASTROINTESTINAL DISORDERS",null,"MILD","N","N","N","N","N","N","N","N","POSSIBLE","","RECOVERED/RESOLVED",13.0,"Y","","","","","","","",""],["CDISCPILOT01","701","01-701-1275","Xanomeline High Dose",81,61,"<65",1,"AMERICAN INDIAN OR ALASKA NATIVE",6,"M","Y","2014-02-07","2014-05-31","2014-02-23","",17.0,"2014-02-23",17.0,1.0,"DAYS","VOMITING","VOMITING",null,"VOMITING",null,"HLT_0016",null,"HLGT_0350",null,"GASTROINTESTINAL DISORDERS","GASTROINTESTINAL DISORDERS",null,"MILD","N","N","N","N","N","N","N","N","POSSIBLE","","RECOVERED/RESOLVED",2.0,"Y","","","Y","","","","",""],["CDISCPILOT01","701","01-701-1287","Xanomeline High Dose",81,56,"<65",1,"WHITE",1,"F","Y","2014-01-25","2014-07-26","2014-03-09","",44.0,null,null,null,"","APPLICATION SITE ERYTHEMA","APPLICATION SITE REDNESS",null,"APPLICATION SITE ERYTHEMA",null,"HLT_0617",null,"HLGT_0152",null,"GENERAL DISORDERS AND ADMINISTRATION SITE CONDITIONS","GENERAL DISORDERS AND ADMINISTRATION SITE CONDITIONS",null,"MILD","N","N","N","N","N","N","N","N","PROBABLE","","NOT RECOVERED/NOT RESOLVED",3.0,"Y","","","Y","","","","DERMATOLOGIC EVENTS",""],["CDISCPILOT01","701","01-701-1287","Xanomeline High Dose",81,56,"<65",1,"WHITE",1,"F","Y","2014-01-25","2014-07-26","2014-02-22","",29.0,null,null,null,"","APPLICATION SITE PRURITUS","APPLICATION SITE ITCHING",null,"APPLICATION SITE PRURITUS",null,"HLT_0317",null,"HLGT_0338",null,"GENERAL DISORDERS AND ADMINISTRATION SITE CONDITIONS","GENERAL DISORDERS AND ADMINISTRATION SITE CONDITIONS",null,"MILD","N","N","N","N","N","N","N","N","POSSIBLE","","NOT RECOVERED/NOT RESOLVED",2.0,"Y","","Y","Y","","","","DERMATOLOGIC EVENTS","Y"],["CDISCPILOT01","701","01-701-1287","Xanomeline High Dose",81,56,"<65",1,"WHITE",1,"F","Y","2014-01-25","2014-07-26","2014-07-09","",166.0,"2014-07-12",169.0,4.0,"DAYS","RHINORRHOEA","RUNNY NOSE",null,"RHINORRHOEA",null,"HLT_0635",null,"HLGT_0460",null,"RESPIRATORY, THORACIC AND MEDIASTINAL DISORDERS","RESPIRATORY, THORACIC AND MEDIASTINAL DISORDERS",null,"MILD","N","N","N","N","N","N","N","N","NONE","","NOT RECOVERED/NOT RESOLVED",4.0,"Y","","Y","Y","","","","",""],["CDISCPILOT01","701","01-701-1287","Xanomeline High Dose",81,56,"<65",1,"WHITE",1,"F","Y","2014-01-25","2014-07-26","2014-07-09","",166.0,"2014-07-12",169.0,4.0,"DAYS","RHINORRHOEA","RUNNY NOSE",null,"RHINORRHOEA",null,"HLT_0635",null,"HLGT_0460",null,"RESPIRATORY, THORACIC AND MEDIASTINAL DISORDERS","RESPIRATORY, THORACIC AND MEDIASTINAL DISORDERS",null,"MILD","N","N","N","N","N","N","N","N","NONE","","RECOVERED/RESOLVED",5.0,"Y","","","","","","","",""],["CDISCPILOT01","701","01-701-1287","Xanomeline High Dose",81,56,"<65",1,"WHITE",1,"F","Y","2014-01-25","2014-07-26","2014-01-26","",2.0,null,null,null,"","SALIVARY HYPERSECRETION","INCREASED SALIVATION",null,"SALIVARY HYPERSECRETION",null,"HLT_0374",null,"HLGT_0488",null,"GASTROINTESTINAL DISORDERS","GASTROINTESTINAL DISORDERS",null,"MILD","N","N","N","N","N","N","N","N","NONE","","NOT RECOVERED/NOT RESOLVED",1.0,"Y","Y","Y","Y","","","","",""],["CDISCPILOT01","701","01-701-1294","Xanomeline Low Dose",54,67,"65-80",2,"WHITE",1,"M","Y","2013-03-24","2013-06-14","2013-05-19","",57.0,null,null,null,"","APPLICATION SITE ERYTHEMA","APPLICATION SITE REDNESS",null,"APPLICATION SITE ERYTHEMA",null,"HLT_0617",null,"HLGT_0152",null,"GENERAL DISORDERS AND ADMINISTRATION SITE CONDITIONS","GENERAL DISORDERS AND ADMINISTRATION SITE CONDITIONS",null,"MILD","N","N","N","N","N","N","N","N","PROBABLE","","NOT RECOVERED/NOT RESOLVED",3.0,"Y","","","Y","","","","DERMATOLOGIC EVENTS",""],["CDISCPILOT01","701","01-701-1294","Xanomeline Low Dose",54,67,"65-80",2,"WHITE",1,"M","Y","2013-03-24","2013-06-14","2013-05-19","",57.0,null,null,null,"","APPLICATION SITE ERYTHEMA","APPLICATION SITE REDNESS",null,"APPLICATION SITE ERYTHEMA",null,"HLT_0617",null,"HLGT_0152",null,"GENERAL DISORDERS AND ADMINISTRATION SITE CONDITIONS","GENERAL DISORDERS AND ADMINISTRATION SITE CONDITIONS",null,"MODERATE","N","N","N","N","N","N","N","N","PROBABLE","","NOT RECOVERED/NOT RESOLVED",5.0,"Y","","","","","","","DERMATOLOGIC EVENTS",""],["CDISCPILOT01","701","01-701-1294","Xanomeline Low Dose",54,67,"65-80",2,"WHITE",1,"M","Y","2013-03-24","2013-06-14","2013-03-22","",-2.0,"2013-03-23",-1.0,2.0,"DAYS","APPLICATION SITE PRURITUS","APPLICATION SITE ITCHING",null,"APPLICATION SITE PRURITUS",null,"HLT_0317",null,"HLGT_0338",null,"GENERAL DISORDERS AND ADMINISTRATION SITE CONDITIONS","GENERAL DISORDERS AND ADMINISTRATION SITE CONDITIONS",null,"MODERATE","N","N","N","N","N","N","N","N","NONE","","RECOVERED/RESOLVED",1.0,"","","","","","","","DERMATOLOGIC EVENTS",""],["CDISCPILOT01","701","01-701-1294","Xanomeline Low Dose",54,67,"65-80",2,"WHITE",1,"M","Y","2013-03-24","2013-06-14","2013-05-19","",57.0,null,null,null,"","APPLICATION SITE PRURITUS","APPLICATION SITE ITCHING",null,"APPLICATION SITE PRURITUS",null,"HLT_0317",null,"HLGT_0338",null,"GENERAL DISORDERS AND ADMINISTRATION SITE CONDITIONS","GENERAL DISORDERS AND ADMINISTRATION SITE CONDITIONS",null,"MILD","N","N","N","N","N","N","N","N","POSSIBLE","","NOT RECOVERED/NOT RESOLVED",2.0,"Y","Y","Y","Y","","","","DERMATOLOGIC EVENTS","Y"],["CDISCPILOT01","701","01-701-1294","Xanomeline Low Dose",54,67,"65-80",2,"WHITE",1,"M","Y","2013-03-24","2013-06-14","2013-05-19","",57.0,null,null,null,"","APPLICATION SITE PRURITUS","APPLICATION SITE ITCHING",null,"APPLICATION SITE PRURITUS",null,"HLT_0317",null,"HLGT_0338",null,"GENERAL DISORDERS AND ADMINISTRATION SITE CONDITIONS","GENERAL DISORDERS AND ADMINISTRATION SITE CONDITIONS",null,"MODERATE","N","N","N","N","N","N","N","N","POSSIBLE","","NOT RECOVERED/NOT RESOLVED",4.0,"Y","","","","","","","DERMATOLOGIC EVENTS",""],["CDISCPILOT01","701","01-701-1294","Xanomeline Low Dose",54,67,"65-80",2,"WHITE",1,"M","Y","2013-03-24","2013-06-14","2013-06-10","",79.0,null,null,null,"","RASH ERYTHEMATOUS","ERYTHEMATOUS RASH",null,"RASH ERYTHEMATOUS",null,"HLT_0336",null,"HLGT_0701",null,"SKIN AND SUBCUTANEOUS TISSUE DISORDERS","SKIN AND SUBCUTANEOUS TISSUE DISORDERS",null,"MODERATE","N","N","N","N","N","N","N","N","PROBABLE","","NOT RECOVERED/NOT RESOLVED",6.0,"Y","","Y","Y","","","","DERMATOLOGIC EVENTS",""],["CDISCPILOT01","701","01-701-1302","Xanomeline High Dose",81,61,"<65",1,"WHITE",1,"M","Y","2013-08-29","2013-11-05","2013-10-15","",48.0,null,null,null,"","APPLICATION SITE ERYTHEMA","APPLICATION SITE REDNESS",null,"APPLICATION SITE ERYTHEMA",null,"HLT_0617",null,"HLGT_0152",null,"GENERAL DISORDERS AND ADMINISTRATION SITE CONDITIONS","GENERAL DISORDERS AND ADMINISTRATION SITE CONDITIONS",null,"MILD","N","N","N","N","N","N","N","N","PROBABLE","","NOT RECOVERED/NOT RESOLVED",16.0,"Y","","","Y","","","","DERMATOLOGIC EVENTS",""],["CDISCPILOT01","701","01-701-1302","Xanomeline High Dose",81,61,"<65",1,"WHITE",1,"M","Y","2013-08-29","2013-11-05","2013-08-30","",2.0,null,null,null,"","APPLICATION SITE PERSPIRATION","APPLICATION SITE PERSPIRATION",null,"APPLICATION SITE PERSPIRATION",null,"HLT_0283",null,"HLGT_0403",null,"GENERAL DISORDERS AND ADMINISTRATION SITE CONDITIONS","GENERAL DISORDERS AND ADMINISTRATION SITE CONDITIONS",null,"MILD","N","N","N","N","N","N","N","N","POSSIBLE","","NOT RECOVERED/NOT RESOLVED",1.0,"Y","Y","Y","Y","","","","DERMATOLOGIC EVENTS","Y"],["CDISCPILOT01","701","01-701-1302","Xanomeline High Dose",81,61,"<65",1,"WHITE",1,"M","Y","2013-08-29","2013-11-05","2013-10-15","",48.0,null,null,null,"","APPLICATION SITE PRURITUS","APPLICATION SITE ITCHING",null,"APPLICATION SITE PRURITUS",null,"HLT_0317",null,"HLGT_0338",null,"GENERAL DISORDERS AND ADMINISTRATION SITE CONDITIONS","GENERAL DISORDERS AND ADMINISTRATION SITE CONDITIONS",null,"MILD","N","N","N","N","N","N","N","N","PROBABLE","","NOT RECOVERED/NOT RESOLVED",17.0,"Y","","","Y","","","","DERMATOLOGIC EVENTS",""],["CDISCPILOT01","701","01-701-1302","Xanomeline High Dose",81,61,"<65",1,"WHITE",1,"M","Y","2013-08-29","2013-11-05","2013-09-05","",8.0,"2013-10-08",41.0,34.0,"DAYS","CONTUSION","BRUISE",null,"CONTUSION",null,"HLT_0713",null,"HLGT_0381",null,"INJURY, POISONING AND PROCEDURAL COMPLICATIONS","INJURY, POISONING AND PROCEDURAL COMPLICATIONS",null,"MILD","N","N","N","N","N","N","N","N","REMOTE","","NOT RECOVERED/NOT RESOLVED",12.0,"Y","","Y","Y","","","","",""],["CDISCPILOT01","701","01-701-1302","Xanomeline High Dose",81,61,"<65",1,"WHITE",1,"M","Y","2013-08-29","2013-11-05","2013-09-05","",8.0,"2013-10-08",41.0,34.0,"DAYS","CONTUSION","BRUISE",null,"CONTUSION",null,"HLT_0713",null,"HLGT_0381",null,"INJURY, POISONING AND PROCEDURAL COMPLICATIONS","INJURY, POISONING AND PROCEDURAL COMPLICATIONS",null,"MILD","N","N","N","N","N","N","N","N","REMOTE","","RECOVERED/RESOLVED",15.0,"Y","","","","","","","",""],["CDISCPILOT01","701","01-701-1302","Xanomeline High Dose",81,61,"<65",1,"WHITE",1,"M","Y","2013-08-29","2013-11-05","2013-09-02","",5.0,"2013-09-03",6.0,2.0,"DAYS","DIZZINESS","DIZZY",null,"DIZZINESS",null,"HLT_0619",null,"HLGT_0751",null,"NERVOUS SYSTEM DISORDERS","NERVOUS SYSTEM DISORDERS",null,"MODERATE","N","N","N","N","N","N","N","N","REMOTE","","RECOVERED/RESOLVED",9.0,"Y","","Y","Y","","","","",""],["CDISCPILOT01","701","01-701-1302","Xanomeline High Dose",81,61,"<65",1,"WHITE",1,"M","Y","2013-08-29","2013-11-05","2013-09-04","",7.0,null,null,null,"","DIZZINESS","LIGHTHEADEDNESS",null,"DIZZINESS",null,"HLT_0619",null,"HLGT_0751",null,"NERVOUS SYSTEM DISORDERS","NERVOUS SYSTEM DISORDERS",null,"MILD","N","N","N","N","N","N","N","N","POSSIBLE","","NOT RECOVERED/NOT RESOLVED",11.0,"Y","","","","","","","",""],["CDISCPILOT01","701","01-701-1302","Xanomeline High Dose",81,61,"<65",1,"WHITE",1,"M","Y","2013-08-29","2013-11-05","2013-09-30","",33.0,null,null,null,"","EPISTAXIS","NOSE BLEED",null,"EPISTAXIS",null,"HLT_0386",null,"HLGT_0577",null,"RESPIRATORY, THORACIC AND MEDIASTINAL DISORDERS","RESPIRATORY, THORACIC AND MEDIASTINAL DISORDERS",null,"MILD","N","N","N","N","N","N","N","N","REMOTE","","NOT RECOVERED/NOT RESOLVED",14.0,"Y","","","Y","","","","",""],["CDISCPILOT01","701","01-701-1302","Xanomeline High Dose",81,61,"<65",1,"WHITE",1,"M","Y","2013-08-29","2013-11-05","2013-10-24","",57.0,null,null,null,"","FEELING ABNORMAL","FOGGY FEELING IN HEAD",null,"FEELING ABNORMAL",null,"HLT_0524",null,"HLGT_0749",null,"GENERAL DISORDERS AND ADMINISTRATION SITE CONDITIONS","GENERAL DISORDERS AND ADMINISTRATION SITE CONDITIONS",null,"MILD","N","N","N","N","N","N","N","N","POSSIBLE","","NOT RECOVERED/NOT RESOLVED",21.0,"Y","","","Y","","","","",""],["CDISCPILOT01","701","01-701-1302","Xanomeline High Dose",81,61,"<65",1,"WHITE",1,"M","Y","2013-08-29","2013-11-05","2013-09-15","",18.0,null,null,null,"","HEADACHE","HEADACHE",null,"HEADACHE",null,"HLT_0064",null,"HLGT_0344",null,"NERVOUS SYSTEM DISORDERS","NERVOUS SYSTEM DISORDERS",null,"MILD","N","N","N","N","N","N","N","N","NONE","","NOT RECOVERED/NOT RESOLVED",13.0,"Y","","","Y","","","","",""],["CDISCPILOT01","701","01-701-1302","Xanomeline High Dose",81,61,"<65",1,"WHITE",1,"M","Y","2013-08-29","2013-11-05","2013-08-30","",2.0,null,null,null,"","HYPERHIDROSIS","PERSPIRATION EXCESSIVE",null,"HYPERHIDROSIS",null,"HLT_0587",null,"HLGT_0005",null,"SKIN AND SUBCUTANEOUS TISSUE DISORDERS","SKIN AND SUBCUTANEOUS TISSUE DISORDERS",null,"MILD","N","N","N","N","N","N","N","N","POSSIBLE","","NOT RECOVERED/NOT RESOLVED",2.0,"Y","","Y","Y","","","","",""],["CDISCPILOT01","701","01-701-1302","Xanomeline High Dose",81,61,"<65",1,"WHITE",1,"M","Y","2013-08-29","2013-11-05","2013-10-24","",57.0,null,null,null,"","LIBIDO DECREASED","LIBIDO DECREASED",null,"LIBIDO DECREASED",null,"HLT_0338",null,"HLGT_0496",null,"PSYCHIATRIC DISORDERS","PSYCHIATRIC DISORDERS",null,"MILD","N","N","N","N","N","N","N","N","POSSIBLE","","NOT RECOVERED/NOT RESOLVED",23.0,"Y","","","Y","","","","",""],["CDISCPILOT01","701","01-701-1302","Xanomeline High Dose",81,61,"<65",1,"WHITE",1,"M","Y","2013-08-29","2013-11-05","2013-10-24","",57.0,null,null,null,"","LISTLESS","LISTLESSNESS",null,"LISTLESS",null,"HLT_0657",null,"HLGT_0124",null,"PSYCHIATRIC DISORDERS","PSYCHIATRIC DISORDERS",null,"MILD","N","N","N","N","N","N","N","N","POSSIBLE","","NOT RECOVERED/NOT RESOLVED",22.0,"Y","","Y","Y","","","","",""],["CDISCPILOT01","701","01-701-1302","Xanomeline High Dose",81,61,"<65",1,"WHITE",1,"M","Y","2013-08-29","2013-11-05","2013-09-02","",5.0,null,null,null,"","MALAISE","MALAISE",null,"MALAISE",null,"HLT_0456",null,"HLGT_0178",null,"GENERAL DISORDERS AND ADMINISTRATION SITE CONDITIONS","GENERAL DISORDERS AND ADMINISTRATION SITE CONDITIONS",null,"MILD","N","N","N","N","N","N","N","N","REMOTE","","NOT RECOVERED/NOT RESOLVED",8.0,"Y","","","Y","","","","",""],["CDISCPILOT01","701","01-701-1302","Xanomeline High Dose",81,61,"<65",1,"WHITE",1,"M","Y","2013-08-29","2013-11-05","2013-09-02","",5.0,null,null,null,"","MALAISE","MALAISE",null,"MALAISE",null,"HLT_0456",null,"HLGT_0178",null,"GENERAL DISORDERS AND ADMINISTRATION SITE CONDITIONS","GENERAL DISORDERS AND ADMINISTRATION SITE CONDITIONS",null,"MODERATE","N","N","N","N","N","N","N","N","REMOTE","","NOT RECOVERED/NOT RESOLVED",18.0,"Y","","","","","","","",""],["CDISCPILOT01","701","01-701-1302","Xanomeline High Dose",81,61,"<65",1,"WHITE",1,"M","Y","2013-08-29","2013-11-05","2013-09-02","",5.0,null,null,null,"","MYALGIA","MYALGIA",null,"MYALGIA",null,"HLT_0700",null,"HLGT_0121",null,"MUSCULOSKELETAL AND CONNECTIVE TISSUE DISORDERS","MUSCULOSKELETAL AND CONNECTIVE TISSUE DISORDERS",null,"MILD","N","N","N","N","N","N","N","N","POSSIBLE","","NOT RECOVERED/NOT RESOLVED",10.0,"Y","","Y","Y","","","","",""],["CDISCPILOT01","701","01-701-1302","Xanomeline High Dose",81,61,"<65",1,"WHITE",1,"M","Y","2013-08-29","2013-11-05","2013-09-01","",4.0,null,null,null,"","NASAL CONGESTION","NASAL CONGESTION",null,"NASAL CONGESTION",null,"HLT_0118",null,"HLGT_0549",null,"RESPIRATORY, THORACIC AND MEDIASTINAL DISORDERS","RESPIRATORY, THORACIC AND MEDIASTINAL DISORDERS",null,"MILD","N","N","N","N","N","N","N","N","NONE","","NOT RECOVERED/NOT RESOLVED",5.0,"Y","","Y","Y","","","","",""],["CDISCPILOT01","701","01-701-1302","Xanomeline High Dose",81,61,"<65",1,"WHITE",1,"M","Y","2013-08-29","2013-11-05","2013-08-31","",3.0,null,null,null,"","PAIN","STINGING",null,"PAIN",null,"HLT_0314",null,"HLGT_0478",null,"GENERAL DISORDERS AND ADMINISTRATION SITE CONDITIONS","GENERAL DISORDERS AND ADMINISTRATION SITE CONDITIONS",null,"MILD","N","N","N","N","N","N","N","N","POSSIBLE","","NOT RECOVERED/NOT RESOLVED",4.0,"Y","","","Y","","","","",""],["CDISCPILOT01","701","01-701-1302","Xanomeline High Dose",81,61,"<65",1,"WHITE",1,"M","Y","2013-08-29","2013-11-05","2013-09-02","",5.0,null,null,null,"","PHARYNGOLARYNGEAL PAIN","SORE THROAT",null,"PHARYNGOLARYNGEAL PAIN",null,"HLT_0130",null,"HLGT_0402",null,"RESPIRATORY, THORACIC AND MEDIASTINAL DISORDERS","RESPIRATORY, THORACIC AND MEDIASTINAL DISORDERS",null,"MILD","N","N","N","N","N","N","N","N","NONE","","NOT RECOVERED/NOT RESOLVED",6.0,"Y","","","Y","","","","",""],["CDISCPILOT01","701","01-701-1302","Xanomeline High Dose",81,61,"<65",1,"WHITE",1,"M","Y","2013-08-29","2013-11-05","2013-09-02","",5.0,null,null,null,"","PRODUCTIVE COUGH","PRODUCTIVE COUGH",null,"PRODUCTIVE COUGH",null,"HLT_0545",null,"HLGT_0681",null,"RESPIRATORY, THORACIC AND MEDIASTINAL DISORDERS","RESPIRATORY, THORACIC AND MEDIASTINAL DISORDERS",null,"MILD","N","N","N","N","N","N","N","N","NONE","","NOT RECOVERED/NOT RESOLVED",7.0,"Y","","","Y","","","","",""],["CDISCPILOT01","701","01-701-1302","Xanomeline High Dose",81,61,"<65",1,"WHITE",1,"M","Y","2013-08-29","2013-11-05","2013-10-23","",56.0,null,null,null,"","RESPIRATORY TRACT CONGESTION","RESPIRATORY TRACT CONGESTION",null,"RESPIRATORY TRACT CONGESTION",null,"HLT_0330",null,"HLGT_0424",null,"RESPIRATORY, THORACIC AND MEDIASTINAL DISORDERS","RESPIRATORY, THORACIC AND MEDIASTINAL DISORDERS",null,"MILD","N","N","N","N","N","N","N","N","NONE","","NOT RECOVERED/NOT RESOLVED",19.0,"Y","","","Y","","","","",""],["CDISCPILOT01","701","01-701-1302","Xanomeline High Dose",81,61,"<65",1,"WHITE",1,"M","Y","2013-08-29","2013-11-05","2013-10-23","",56.0,null,null,null,"","RHINITIS","CORYZA",null,"RHINITIS",null,"HLT_0239",null,"HLGT_0322",null,"INFECTIONS AND INFESTATIONS","INFECTIONS AND INFESTATIONS",null,"MILD","N","N","N","N","N","N","N","N","NONE","","NOT RECOVERED/NOT RESOLVED",20.0,"Y","","Y","Y","","","","",""],["CDISCPILOT01","701","01-701-1302","Xanomeline High Dose",81,61,"<65",1,"WHITE",1,"M","Y","2013-08-29","2013-11-05","2013-08-30","",2.0,null,null,null,"","STOMACH DISCOMFORT","STOMACH UPSET",null,"STOMACH DISCOMFORT",null,"HLT_0065",null,"HLGT_0183",null,"GASTROINTESTINAL DISORDERS","GASTROINTESTINAL DISORDERS",null,"MILD","N","N","N","N","N","N","N","N","POSSIBLE","","NOT RECOVERED/NOT RESOLVED",3.0,"Y","","Y","Y","","","","",""],["CDISCPILOT01","701","01-701-1317","Xanomeline Low Dose",54,68,"65-80",2,"WHITE",1,"M","Y","2014-05-22","2014-11-20","2014-06-23","",33.0,null,null,null,"","APPLICATION SITE ERYTHEMA","APPLICATION SITE REDNESS",null,"APPLICATION SITE ERYTHEMA",null,"HLT_0617",null,"HLGT_0152",null,"GENERAL DISORDERS AND ADMINISTRATION SITE CONDITIONS","GENERAL DISORDERS AND ADMINISTRATION SITE CONDITIONS",null,"MILD","N","N","N","N","N","N","N","N","POSSIBLE","","NOT RECOVERED/NOT RESOLVED",3.0,"Y","Y","Y","Y","","","","DERMATOLOGIC EVENTS","Y"],["CDISCPILOT01","701","01-701-1317","Xanomeline Low Dose",54,68,"65-80",2,"WHITE",1,"M","Y","2014-05-22","2014-11-20","2014-06-23","",33.0,null,null,null,"","APPLICATION SITE PRURITUS","APPLICATION SITE ITCHING",null,"APPLICATION SITE PRURITUS",null,"HLT_0317",null,"HLGT_0338",null,"GENERAL DISORDERS AND ADMINISTRATION SITE CONDITIONS","GENERAL DISORDERS AND ADMINISTRATION SITE CONDITIONS",null,"MILD","N","N","N","N","N","N","N","N","POSSIBLE","","NOT RECOVERED/NOT RESOLVED",4.0,"Y","","","Y","","","","DERMATOLOGIC EVENTS",""],["CDISCPILOT01","701","01-701-1317","Xanomeline Low Dose",54,68,"65-80",2,"WHITE",1,"M","Y","2014-05-22","2014-11-20","2014-06-23","",33.0,null,null,null,"","APPLICATION SITE URTICARIA","APPLICATION SITE URTICARIA",null,"APPLICATION SITE URTICARIA",null,"HLT_0196",null,"HLGT_0233",null,"GENERAL DISORDERS AND ADMINISTRATION SITE CONDITIONS","GENERAL DISORDERS AND ADMINISTRATION SITE CONDITIONS",null,"MILD","N","N","N","N","N","N","N","N","POSSIBLE","","NOT RECOVERED/NOT RESOLVED",5.0,"Y","","","Y","","","","DERMATOLOGIC EVENTS",""],["CDISCPILOT01","701","01-701-1317","Xanomeline Low Dose",54,68,"65-80",2,"WHITE",1,"M","Y","2014-05-22","2014-11-20","2014-05-13","",-9.0,null,null,null,"","CYST","CYST",null,"CYST",null,"HLT_0763",null,"HLGT_0341",null,"GENERAL DISORDERS AND ADMINISTRATION SITE CONDITIONS","GENERAL DISORDERS AND ADMINISTRATION SITE CONDITIONS",null,"MILD","N","N","N","N","N","N","N","N","NONE","","NOT RECOVERED/NOT RESOLVED",2.0,"","","","","","","","",""],["CDISCPILOT01","701","01-701-1317","Xanomeline Low Dose",54,68,"65-80",2,"WHITE",1,"M","Y","2014-05-22","2014-11-20","2014-07-04","",44.0,null,null,null,"","DEPRESSED MOOD","DEPRESSED MOOD",null,"DEPRESSED MOOD",null,"HLT_0784",null,"HLGT_0122",null,"PSYCHIATRIC DISORDERS","PSYCHIATRIC DISORDERS",null,"MILD","N","N","N","N","N","N","N","N","POSSIBLE","","NOT RECOVERED/NOT RESOLVED",6.0,"Y","","Y","Y","","","","",""],["CDISCPILOT01","701","01-701-1317","Xanomeline Low Dose",54,68,"65-80",2,"WHITE",1,"M","Y","2014-05-22","2014-11-20","2014-07-04","",44.0,null,null,null,"","DEPRESSED MOOD","DEPRESSED MOOD",null,"DEPRESSED MOOD",null,"HLT_0784",null,"HLGT_0122",null,"PSYCHIATRIC DISORDERS","PSYCHIATRIC DISORDERS",null,"MODERATE","N","N","N","N","N","N","N","N","POSSIBLE","","NOT RECOVERED/NOT RESOLVED",7.0,"Y","","","","","","","",""],["CDISCPILOT01","701","01-701-1317","Xanomeline Low Dose",54,68,"65-80",2,"WHITE",1,"M","Y","2014-05-22","2014-11-20","2014-11-03","",166.0,null,null,null,"","DYSPHONIA","HOARSENESS",null,"DYSPHONIA",null,"HLT_0073",null,"HLGT_0274",null,"RESPIRATORY, THORACIC AND MEDIASTINAL DISORDERS","RESPIRATORY, THORACIC AND MEDIASTINAL DISORDERS",null,"MILD","N","N","N","N","N","N","N","N","REMOTE","","NOT RECOVERED/NOT RESOLVED",9.0,"Y","","Y","Y","","","","",""],["CDISCPILOT01","701","01-701-1317","Xanomeline Low Dose",54,68,"65-80",2,"WHITE",1,"M","Y","2014-05-22","2014-11-20","2014-09-12","",114.0,null,null,null,"","FATIGUE","TIREDNESS",null,"FATIGUE",null,"HLT_0043",null,"HLGT_0181",null,"GENERAL DISORDERS AND ADMINISTRATION SITE CONDITIONS","GENERAL DISORDERS AND ADMINISTRATION SITE CONDITIONS",null,"MILD","N","N","N","N","N","N","N","N","REMOTE","","NOT RECOVERED/NOT RESOLVED",8.0,"Y","","","Y","","","","",""],["CDISCPILOT01","701","01-701-1317","Xanomeline Low Dose",54,68,"65-80",2,"WHITE",1,"M","Y","2014-05-22","2014-11-20","2014-05-13","",-9.0,null,null,null,"","ONYCHOMYCOSIS","ONYCHOMYCOSIS",null,"ONYCHOMYCOSIS",null,"HLT_0275",null,"HLGT_0243",null,"INFECTIONS AND INFESTATIONS","INFECTIONS AND INFESTATIONS",null,"MILD","N","N","N","N","N","N","N","N","NONE","","NOT RECOVERED/NOT RESOLVED",1.0,"","","","","","","","",""],["CDISCPILOT01","701","01-701-1324","Xanomeline Low Dose",54,79,"65-80",2,"WHITE",1,"M","Y","2012-10-02","2013-04-02","2012-10-22","",21.0,null,null,null,"","APPLICATION SITE ERYTHEMA","APPLICATION SITE ERYTHEMA",null,"APPLICATION SITE ERYTHEMA",null,"HLT_0617",null,"HLGT_0152",null,"GENERAL DISORDERS AND ADMINISTRATION SITE CONDITIONS","GENERAL DISORDERS AND ADMINISTRATION SITE CONDITIONS",null,"MILD","N","N","N","N","N","N","N","N","PROBABLE","","NOT RECOVERED/NOT RESOLVED",1.0,"Y","Y","Y","Y","","","","DERMATOLOGIC EVENTS","Y"],["CDISCPILOT01","701","01-701-1324","Xanomeline Low Dose",54,79,"65-80",2,"WHITE",1,"M","Y","2012-10-02","2013-04-02","2012-12-02","",62.0,null,null,null,"","APPLICATION SITE PRURITUS","APPLICATION SITE ITCHING",null,"APPLICATION SITE PRURITUS",null,"HLT_0317",null,"HLGT_0338",null,"GENERAL DISORDERS AND ADMINISTRATION SITE CONDITIONS","GENERAL DISORDERS AND ADMINISTRATION SITE CONDITIONS",null,"MILD","N","N","N","N","N","N","N","N","PROBABLE","","NOT RECOVERED/NOT RESOLVED",2.0,"Y","","","Y","","","","DERMATOLOGIC EVENTS",""],["CDISCPILOT01","701","01-701-1324","Xanomeline Low Dose",54,79,"65-80",2,"WHITE",1,"M","Y","2012-10-02","2013-04-02","2012-12-25","",85.0,"2013-01-16",107.0,23.0,"DAYS","APPLICATION SITE VESICLES","APPLICATION SITE BLISTER",null,"APPLICATION SITE VESICLES",null,"HLT_0180",null,"HLGT_0576",null,"GENERAL DISORDERS AND ADMINISTRATION SITE CONDITIONS","GENERAL DISORDERS AND ADMINISTRATION SITE CONDITIONS",null,"MILD","N","N","N","N","N","N","N","N","PROBABLE","","NOT RECOVERED/NOT RESOLVED",3.0,"Y","","","Y","","","","DERMATOLOGIC EVENTS",""],["CDISCPILOT01","701","01-701-1324","Xanomeline Low Dose",54,79,"65-80",2,"WHITE",1,"M","Y","2012-10-02","2013-04-02","2012-12-25","",85.0,"2013-01-16",107.0,23.0,"DAYS","APPLICATION SITE VESICLES","APPLICATION SITE BLISTER",null,"APPLICATION SITE VESICLES",null,"HLT_0180",null,"HLGT_0576",null,"GENERAL DISORDERS AND ADMINISTRATION SITE CONDITIONS","GENERAL DISORDERS AND ADMINISTRATION SITE CONDITIONS",null,"MILD","N","N","N","N","N","N","N","N","PROBABLE","","RECOVERED/RESOLVED",4.0,"Y","","","","","","","DERMATOLOGIC EVENTS",""],["CDISCPILOT01","701","01-701-1341","Xanomeline Low Dose",54,51,"<65",1,"WHITE",1,"M","Y","2013-01-05","2013-01-26","2013-01-19","",15.0,null,null,null,"","APPLICATION SITE ERYTHEMA","APPLICATION SITE REDNESS",null,"APPLICATION SITE ERYTHEMA",null,"HLT_0617",null,"HLGT_0152",null,"GENERAL DISORDERS AND ADMINISTRATION SITE CONDITIONS","GENERAL DISORDERS AND ADMINISTRATION SITE CONDITIONS",null,"MODERATE","N","N","N","N","N","N","N","N","PROBABLE","","NOT RECOVERED/NOT RESOLVED",2.0,"Y","","","Y","","","","DERMATOLOGIC EVENTS",""],["CDISCPILOT01","701","01-701-1341","Xanomeline Low Dose",54,51,"<65",1,"WHITE",1,"M","Y","2013-01-05","2013-01-26","2013-01-26","",22.0,null,null,null,"","APPLICATION SITE ERYTHEMA","APPLICATION SITE REDNESS",null,"APPLICATION SITE ERYTHEMA",null,"HLT_0617",null,"HLGT_0152",null,"GENERAL DISORDERS AND ADMINISTRATION SITE CONDITIONS","GENERAL DISORDERS AND ADMINISTRATION SITE CONDITIONS",null,"MODERATE","N","N","N","N","N","N","N","N","PROBABLE","","NOT RECOVERED/NOT RESOLVED",4.0,"Y","","","","","","","DERMATOLOGIC EVENTS",""],["CDISCPILOT01","701","01-701-1341","Xanomeline Low Dose",54,51,"<65",1,"WHITE",1,"M","Y","2013-01-05","2013-01-26","2013-01-26","",22.0,"2013-01-30",26.0,5.0,"DAYS","APPLICATION SITE IRRITATION","APPLICATION SITE BURNING",null,"APPLICATION SITE IRRITATION",null,"HLT_0061",null,"HLGT_0346",null,"GENERAL DISORDERS AND ADMINISTRATION SITE CONDITIONS","GENERAL DISORDERS AND ADMINISTRATION SITE CONDITIONS",null,"MODERATE","N","N","N","N","N","N","N","N","PROBABLE","","RECOVERED/RESOLVED",5.0,"Y","","","Y","","","","DERMATOLOGIC EVENTS",""],["CDISCPILOT01","701","01-701-1341","Xanomeline Low Dose",54,51,"<65",1,"WHITE",1,"M","Y","2013-01-05","2013-01-26","2013-01-19","",15.0,null,null,null,"","APPLICATION SITE PRURITUS","APPLICATION SITE ITCHING",null,"APPLICATION SITE PRURITUS",null,"HLT_0317",null,"HLGT_0338",null,"GENERAL DISORDERS AND ADMINISTRATION SITE CONDITIONS","GENERAL DISORDERS AND ADMINISTRATION SITE CONDITIONS",null,"MODERATE","N","N","N","N","N","N","N","N","PROBABLE","","NOT RECOVERED/NOT RESOLVED",1.0,"Y","Y","Y","Y","","","","DERMATOLOGIC EVENTS","Y"],["CDISCPILOT01","701","01-701-1341","Xanomeline Low Dose",54,51,"<65",1,"WHITE",1,"M","Y","2013-01-05","2013-01-26","2013-01-26","",22.0,"2013-01-30",26.0,5.0,"DAYS","APPLICATION SITE PRURITUS","APPLICATION SITE ITCHING",null,"APPLICATION SITE PRURITUS",null,"HLT_0317",null,"HLGT_0338",null,"GENERAL DISORDERS AND ADMINISTRATION SITE CONDITIONS","GENERAL DISORDERS AND ADMINISTRATION SITE CONDITIONS",null,"MODERATE","N","N","N","N","N","N","N","N","PROBABLE","","RECOVERED/RESOLVED",3.0,"Y","","","","","","","DERMATOLOGIC EVENTS",""],["CDISCPILOT01","701","01-701-1360","Xanomeline High Dose",81,67,"65-80",2,"WHITE",1,"M","Y","2013-07-31","2013-08-05","2013-08-02","",3.0,null,null,null,"","APPLICATION SITE ERYTHEMA","APPLICATION SITE ERYTHEMA",null,"APPLICATION SITE ERYTHEMA",null,"HLT_0617",null,"HLGT_0152",null,"GENERAL DISORDERS AND ADMINISTRATION SITE CONDITIONS","GENERAL DISORDERS AND ADMINISTRATION SITE CONDITIONS",null,"MODERATE","N","N","N","N","N","N","N","N","PROBABLE","","NOT RECOVERED/NOT RESOLVED",1.0,"Y","Y","Y","Y","","","","DERMATOLOGIC EVENTS","Y"],["CDISCPILOT01","701","01-701-1360","Xanomeline High Dose",81,67,"65-80",2,"WHITE",1,"M","Y","2013-07-31","2013-08-05","2013-08-02","",3.0,null,null,null,"","APPLICATION SITE PRURITUS","APPLICATION SITE ITCHING",null,"APPLICATION SITE PRURITUS",null,"HLT_0317",null,"HLGT_0338",null,"GENERAL DISORDERS AND ADMINISTRATION SITE CONDITIONS","GENERAL DISORDERS AND ADMINISTRATION SITE CONDITIONS",null,"MODERATE","N","N","N","N","N","N","N","N","PROBABLE","","NOT RECOVERED/NOT RESOLVED",2.0,"Y","","","Y","","","","DERMATOLOGIC EVENTS",""],["CDISCPILOT01","701","01-701-1360","Xanomeline High Dose",81,67,"65-80",2,"WHITE",1,"M","Y","2013-07-31","2013-08-05","2013-08-05","",6.0,null,null,null,"","APPLICATION SITE VESICLES","APPLICATION SITE BLISTER",null,"APPLICATION SITE VESICLES",null,"HLT_0180",null,"HLGT_0576",null,"GENERAL DISORDERS AND ADMINISTRATION SITE CONDITIONS","GENERAL DISORDERS AND ADMINISTRATION SITE CONDITIONS",null,"MODERATE","N","N","N","N","N","N","N","N","PROBABLE","","NOT RECOVERED/NOT RESOLVED",3.0,"Y","","","Y","","","","DERMATOLOGIC EVENTS",""],["CDISCPILOT01","701","01-701-1363","Placebo",0,81,">80",3,"BLACK OR AFRICAN AMERICAN",2,"F","Y","2013-05-30","2013-11-27","2013-07-16","",48.0,null,null,null,"","APPLICATION SITE PRURITUS","APPLICATION SITE ITCHING",null,"APPLICATION SITE PRURITUS",null,"HLT_0317",null,"HLGT_0338",null,"GENERAL DISORDERS AND ADMINISTRATION SITE CONDITIONS","GENERAL DISORDERS AND ADMINISTRATION SITE CONDITIONS",null,"MILD","N","N","N","N","N","N","N","N","PROBABLE","","NOT RECOVERED/NOT RESOLVED",3.0,"Y","","Y","Y","","","","DERMATOLOGIC EVENTS","Y"],["CDISCPILOT01","701","01-701-1363","Placebo",0,81,">80",3,"BLACK OR AFRICAN AMERICAN",2,"F","Y","2013-05-30","2013-11-27","2013-10-13","",137.0,"2013-10-15",139.0,3.0,"DAYS","BACK PAIN","BACKACHE",null,"BACK PAIN",null,"HLT_0115",null,"HLGT_0508",null,"MUSCULOSKELETAL AND CONNECTIVE TISSUE DISORDERS","MUSCULOSKELETAL AND CONNECTIVE TISSUE DISORDERS",null,"MILD","N","N","N","N","N","N","N","N","NONE","","NOT RECOVERED/NOT RESOLVED",5.0,"Y","","Y","Y","","","","",""],["CDISCPILOT01","701","01-701-1363","Placebo",0,81,">80",3,"BLACK OR AFRICAN AMERICAN",2,"F","Y","2013-05-30","2013-11-27","2013-10-13","",137.0,"2013-10-15",139.0,3.0,"DAYS","BACK PAIN","BACKACHE",null,"BACK PAIN",null,"HLT_0115",null,"HLGT_0508",null,"MUSCULOSKELETAL AND CONNECTIVE TISSUE DISORDERS","MUSCULOSKELETAL AND CONNECTIVE TISSUE DISORDERS",null,"MILD","N","N","N","N","N","N","N","N","NONE","","RECOVERED/RESOLVED",6.0,"Y","","","","","","","",""],["CDISCPILOT01","701","01-701-1363","Placebo",0,81,">80",3,"BLACK OR AFRICAN AMERICAN",2,"F","Y","2013-05-30","2013-11-27",null,"",null,null,null,null,"","HEADACHE","HEADACHE",null,"HEADACHE",null,"HLT_0064",null,"HLGT_0344",null,"NERVOUS SYSTEM DISORDERS","NERVOUS SYSTEM DISORDERS",null,"MODERATE","N","N","N","N","N","N","N","N","POSSIBLE","","NOT RECOVERED/NOT RESOLVED",2.0,"","","","","","","","",""],["CDISCPILOT01","701","01-701-1363","Placebo",0,81,">80",3,"BLACK OR AFRICAN AMERICAN",2,"F","Y","2013-05-30","2013-11-27",null,"",null,null,null,null,"","HEADACHE","HEADACHE",null,"HEADACHE",null,"HLT_0064",null,"HLGT_0344",null,"NERVOUS SYSTEM DISORDERS","NERVOUS SYSTEM DISORDERS",null,"MILD","N","N","N","N","N","N","N","N","POSSIBLE","","NOT RECOVERED/NOT RESOLVED",4.0,"","","","","","","","",""],["CDISCPILOT01","701","01-701-1363","Placebo",0,81,">80",3,"BLACK OR AFRICAN AMERICAN",2,"F","Y","2013-05-30","2013-11-27","2013-06-14","",16.0,"2013-06-15",17.0,2.0,"DAYS","NAUSEA","NAUSEA",null,"NAUSEA",null,"HLT_0742",null,"HLGT_0326",null,"GASTROINTESTINAL DISORDERS","GASTROINTESTINAL DISORDERS",null,"MILD","N","N","N","N","N","N","N","N","REMOTE","","RECOVERED/RESOLVED",1.0,"Y","Y","Y","Y","","","","",""],["CDISCPILOT01","701","01-701-1383","Xanomeline High Dose",81,72,"65-80",2,"WHITE",1,"F","Y","2013-02-04","2013-08-06","2013-03-23","",48.0,"2013-03-26",51.0,4.0,"DAYS","APPLICATION SITE ERYTHEMA","APPLICATION SITE ERYTHEMA",null,"APPLICATION SITE ERYTHEMA",null,"HLT_0617",null,"HLGT_0152",null,"GENERAL DISORDERS AND ADMINISTRATION SITE CONDITIONS","GENERAL DISORDERS AND ADMINISTRATION SITE CONDITIONS",null,"MILD","N","N","N","N","N","N","N","N","POSSIBLE","","RECOVERED/RESOLVED",3.0,"Y","","","Y","","","","DERMATOLOGIC EVENTS",""],["CDISCPILOT01","701","01-701-1383","Xanomeline High Dose",81,72,"65-80",2,"WHITE",1,"F","Y","2013-02-04","2013-08-06","2013-04-12","",68.0,null,null,null,"","APPLICATION SITE ERYTHEMA","APPLICATION SITE ERYTHEMA",null,"APPLICATION SITE ERYTHEMA",null,"HLT_0617",null,"HLGT_0152",null,"GENERAL DISORDERS AND ADMINISTRATION SITE CONDITIONS","GENERAL DISORDERS AND ADMINISTRATION SITE CONDITIONS",null,"MILD","N","N","N","N","N","N","N","N","POSSIBLE","","NOT RECOVERED/NOT RESOLVED",5.0,"Y","","","","","","","DERMATOLOGIC EVENTS",""],["CDISCPILOT01","701","01-701-1383","Xanomeline High Dose",81,72,"65-80",2,"WHITE",1,"F","Y","2013-02-04","2013-08-06","2013-04-12","",68.0,null,null,null,"","APPLICATION SITE IRRITATION","APPLICATION SITE BURNING",null,"APPLICATION SITE IRRITATION",null,"HLT_0061",null,"HLGT_0346",null,"GENERAL DISORDERS AND ADMINISTRATION SITE CONDITIONS","GENERAL DISORDERS AND ADMINISTRATION SITE CONDITIONS",null,"MILD","N","N","N","N","N","N","N","N","POSSIBLE","","NOT RECOVERED/NOT RESOLVED",6.0,"Y","","","Y","","","","DERMATOLOGIC EVENTS",""],["CDISCPILOT01","701","01-701-1383","Xanomeline High Dose",81,72,"65-80",2,"WHITE",1,"F","Y","2013-02-04","2013-08-06","2013-04-12","",68.0,null,null,null,"","APPLICATION SITE IRRITATION","APPLICATION SITE BURNING",null,"APPLICATION SITE IRRITATION",null,"HLT_0061",null,"HLGT_0346",null,"GENERAL DISORDERS AND ADMINISTRATION SITE CONDITIONS","GENERAL DISORDERS AND ADMINISTRATION SITE CONDITIONS",null,"MODERATE","N","N","N","N","N","N","N","N","POSSIBLE","","NOT RECOVERED/NOT RESOLVED",8.0,"Y","","","","","","","DERMATOLOGIC EVENTS",""],["CDISCPILOT01","701","01-701-1383","Xanomeline High Dose",81,72,"65-80",2,"WHITE",1,"F","Y","2013-02-04","2013-08-06","2013-02-07","",4.0,"2013-02-07",4.0,1.0,"DAYS","APPLICATION SITE PAIN","APPLICATION SITE PAIN",null,"APPLICATION SITE PAIN",null,"HLT_0342",null,"HLGT_0085",null,"GENERAL DISORDERS AND ADMINISTRATION SITE CONDITIONS","GENERAL DISORDERS AND ADMINISTRATION SITE CONDITIONS",null,"MILD","N","N","N","N","N","N","N","N","PROBABLE","","RECOVERED/RESOLVED",2.0,"Y","","","Y","","","","DERMATOLOGIC EVENTS",""],["CDISCPILOT01","701","01-701-1383","Xanomeline High Dose",81,72,"65-80",2,"WHITE",1,"F","Y","2013-02-04","2013-08-06","2013-02-07","",4.0,"2013-02-07",4.0,1.0,"DAYS","APPLICATION SITE PRURITUS","APPLICATION SITE ITCHING",null,"APPLICATION SITE PRURITUS",null,"HLT_0317",null,"HLGT_0338",null,"GENERAL DISORDERS AND ADMINISTRATION SITE CONDITIONS","GENERAL DISORDERS AND ADMINISTRATION SITE CONDITIONS",null,"MILD","N","N","N","N","N","N","N","N","PROBABLE","","RECOVERED/RESOLVED",1.0,"Y","Y","Y","Y","","","","DERMATOLOGIC EVENTS","Y"],["CDISCPILOT01","701","01-701-1383","Xanomeline High Dose",81,72,"65-80",2,"WHITE",1,"F","Y","2013-02-04","2013-08-06","2013-03-23","",48.0,null,null,null,"","APPLICATION SITE PRURITUS","APPLICATION SITE ITCHING",null,"APPLICATION SITE PRURITUS",null,"HLT_0317",null,"HLGT_0338",null,"GENERAL DISORDERS AND ADMINISTRATION SITE CONDITIONS","GENERAL DISORDERS AND ADMINISTRATION SITE CONDITIONS",null,"MILD","N","N","N","N","N","N","N","N","POSSIBLE","","NOT RECOVERED/NOT RESOLVED",4.0,"Y","","","","","","","DERMATOLOGIC EVENTS",""],["CDISCPILOT01","701","01-701-1383","Xanomeline High Dose",81,72,"65-80",2,"WHITE",1,"F","Y","2013-02-04","2013-08-06","2013-03-23","",48.0,null,null,null,"","APPLICATION SITE PRURITUS","APPLICATION SITE ITCHING",null,"APPLICATION SITE PRURITUS",null,"HLT_0317",null,"HLGT_0338",null,"GENERAL DISORDERS AND ADMINISTRATION SITE CONDITIONS","GENERAL DISORDERS AND ADMINISTRATION SITE CONDITIONS",null,"MODERATE","N","N","N","N","N","N","N","N","POSSIBLE","","NOT RECOVERED/NOT RESOLVED",7.0,"Y","","","","","","","DERMATOLOGIC EVENTS",""],["CDISCPILOT01","701","01-701-1383","Xanomeline High Dose",81,72,"65-80",2,"WHITE",1,"F","Y","2013-02-04","2013-08-06","2013-05-07","",93.0,"2013-05-24",110.0,18.0,"DAYS","APPLICATION SITE VESICLES","APPLICATION SITE BLISTER",null,"APPLICATION SITE VESICLES",null,"HLT_0180",null,"HLGT_0576",null,"GENERAL DISORDERS AND ADMINISTRATION SITE CONDITIONS","GENERAL DISORDERS AND ADMINISTRATION SITE CONDITIONS",null,"MILD","N","N","N","N","N","N","N","N","POSSIBLE","","RECOVERED/RESOLVED",9.0,"Y","","","Y","","","","DERMATOLOGIC EVENTS",""],["CDISCPILOT01","701","01-701-1383","Xanomeline High Dose",81,72,"65-80",2,"WHITE",1,"F","Y","2013-02-04","2013-08-06","2013-06-24","",141.0,"2013-06-24",141.0,1.0,"DAYS","CHEST DISCOMFORT","CHEST PRESSURE",null,"CHEST DISCOMFORT",null,"HLT_0593",null,"HLGT_0441",null,"GENERAL DISORDERS AND ADMINISTRATION SITE CONDITIONS","GENERAL DISORDERS AND ADMINISTRATION SITE CONDITIONS",null,"MILD","N","N","N","N","N","N","N","N","NONE","","RECOVERED/RESOLVED",10.0,"Y","","","Y","","","","",""],["CDISCPILOT01","701","01-701-1383","Xanomeline High Dose",81,72,"65-80",2,"WHITE",1,"F","Y","2013-02-04","2013-08-06","2013-07-17","",164.0,"2013-07-26",173.0,10.0,"DAYS","COUGH","COUGH",null,"COUGH",null,"HLT_0701",null,"HLGT_0280",null,"RESPIRATORY, THORACIC AND MEDIASTINAL DISORDERS","RESPIRATORY, THORACIC AND MEDIASTINAL DISORDERS",null,"MODERATE","N","N","N","N","N","N","N","N","NONE","","RECOVERED/RESOLVED",12.0,"Y","","Y","Y","","","","",""],["CDISCPILOT01","701","01-701-1383","Xanomeline High Dose",81,72,"65-80",2,"WHITE",1,"F","Y","2013-02-04","2013-08-06","2013-06-24","",141.0,"2013-06-24",141.0,1.0,"DAYS","HEADACHE","FULLNESS HEAD",null,"HEADACHE",null,"HLT_0064",null,"HLGT_0344",null,"NERVOUS SYSTEM DISORDERS","NERVOUS SYSTEM DISORDERS",null,"MILD","N","N","N","N","N","N","N","N","NONE","","RECOVERED/RESOLVED",11.0,"Y","","Y","Y","","","","",""],["CDISCPILOT01","701","01-701-1387","Placebo",0,87,">80",3,"WHITE",1,"F","Y","2014-03-12","2014-03-25","2014-03-18","",7.0,"2014-03-18",7.0,1.0,"DAYS","DIARRHOEA","DIARRHEA",null,"DIARRHOEA",null,"HLT_0148",null,"HLGT_0588",null,"GASTROINTESTINAL DISORDERS","GASTROINTESTINAL DISORDERS",null,"MILD","N","N","N","N","N","N","N","N","REMOTE","","RECOVERED/RESOLVED",1.0,"Y","Y","Y","Y","","","","",""],["CDISCPILOT01","701","01-701-1387","Placebo",0,87,">80",3,"WHITE",1,"F","Y","2014-03-12","2014-03-25","2014-03-18","",7.0,"2014-03-18",7.0,1.0,"DAYS","HYPERHIDROSIS","SWEATING",null,"HYPERHIDROSIS",null,"HLT_0587",null,"HLGT_0005",null,"SKIN AND SUBCUTANEOUS TISSUE DISORDERS","SKIN AND SUBCUTANEOUS TISSUE DISORDERS",null,"MILD","N","N","N","N","N","N","N","N","REMOTE","","RECOVERED/RESOLVED",2.0,"Y","","Y","Y","","","","",""],["CDISCPILOT01","701","01-701-1392","Placebo",0,78,"65-80",2,"WHITE",1,"M","Y","2012-10-28","2013-04-28","2013-03-16","",140.0,"2013-03-21",145.0,6.0,"DAYS","UPPER RESPIRATORY TRACT INFECTION","UPPER RESPIRATORY INFECTION",null,"UPPER RESPIRATORY TRACT INFECTION",null,"HLT_0520",null,"HLGT_0489",null,"INFECTIONS AND INFESTATIONS","INFECTIONS AND INFESTATIONS",null,"MILD","N","N","N","N","N","N","N","N","REMOTE","","NOT RECOVERED/NOT RESOLVED",1.0,"Y","Y","Y","Y","","","","",""],["CDISCPILOT01","701","01-701-1392","Placebo",0,78,"65-80",2,"WHITE",1,"M","Y","2012-10-28","2013-04-28","2013-03-16","",140.0,"2013-03-21",145.0,6.0,"DAYS","UPPER RESPIRATORY TRACT INFECTION","UPPER RESPIRATORY INFECTION",null,"UPPER RESPIRATORY TRACT INFECTION",null,"HLT_0520",null,"HLGT_0489",null,"INFECTIONS AND INFESTATIONS","INFECTIONS AND INFESTATIONS",null,"MILD","N","N","N","N","N","N","N","N","REMOTE","","RECOVERED/RESOLVED",2.0,"Y","","","","","","","",""],["CDISCPILOT01","701","01-701-1415","Placebo",0,85,">80",3,"WHITE",1,"M","Y","2013-09-23","2014-03-24","2014-03-09","",168.0,"2014-03-09",168.0,1.0,"DAYS","DIARRHOEA","DIARRHEA",null,"DIARRHOEA",null,"HLT_0148",null,"HLGT_0588",null,"GASTROINTESTINAL DISORDERS","GASTROINTESTINAL DISORDERS",null,"MILD","N","N","N","N","N","N","N","N","NONE","","RECOVERED/RESOLVED",6.0,"Y","","Y","Y","","","","",""],["CDISCPILOT01","701","01-701-1415","Placebo",0,85,">80",3,"WHITE",1,"M","Y","2013-09-23","2014-03-24","2013-12-02","",71.0,null,null,null,"","MICTURITION URGENCY","URINARY URGENCY",null,"MICTURITION URGENCY",null,"HLT_0294",null,"HLGT_0483",null,"RENAL AND URINARY DISORDERS","RENAL AND URINARY DISORDERS",null,"MILD","N","N","N","N","N","N","N","N","NONE","","NOT RECOVERED/NOT RESOLVED",3.0,"Y","","Y","Y","","","","",""],["CDISCPILOT01","701","01-701-1415","Placebo",0,85,">80",3,"WHITE",1,"M","Y","2013-09-23","2014-03-24","2013-10-21","",29.0,"2013-11-04",43.0,15.0,"DAYS","UPPER RESPIRATORY TRACT INFECTION","UPPER RESPIRATORY INFECTION",null,"UPPER RESPIRATORY TRACT INFECTION",null,"HLT_0520",null,"HLGT_0489",null,"INFECTIONS AND INFESTATIONS","INFECTIONS AND INFESTATIONS",null,"MILD","N","N","N","N","N","N","N","N","NONE","","NOT RECOVERED/NOT RESOLVED",1.0,"Y","Y","Y","Y","","","","",""],["CDISCPILOT01","701","01-701-1415","Placebo",0,85,">80",3,"WHITE",1,"M","Y","2013-09-23","2014-03-24","2013-10-21","",29.0,"2013-11-04",43.0,15.0,"DAYS","UPPER RESPIRATORY TRACT INFECTION","UPPER RESPIRATORY INFECTION",null,"UPPER RESPIRATORY TRACT INFECTION",null,"HLT_0520",null,"HLGT_0489",null,"INFECTIONS AND INFESTATIONS","INFECTIONS AND INFESTATIONS",null,"MILD","N","N","N","N","N","N","N","N","NONE","","RECOVERED/RESOLVED",2.0,"Y","","","","","","","",""],["CDISCPILOT01","701","01-701-1415","Placebo",0,85,">80",3,"WHITE",1,"M","Y","2013-09-23","2014-03-24","2014-01-21","",121.0,"2014-02-10",141.0,21.0,"DAYS","UPPER RESPIRATORY TRACT INFECTION","UPPER RESPIRATORY INFECTION",null,"UPPER RESPIRATORY TRACT INFECTION",null,"HLT_0520",null,"HLGT_0489",null,"INFECTIONS AND INFESTATIONS","INFECTIONS AND INFESTATIONS",null,"MILD","N","N","N","N","N","N","N","N","REMOTE","","NOT RECOVERED/NOT RESOLVED",4.0,"Y","","","","","","","",""],["CDISCPILOT01","701","01-701-1415","Placebo",0,85,">80",3,"WHITE",1,"M","Y","2013-09-23","2014-03-24","2014-01-21","",121.0,"2014-02-10",141.0,21.0,"DAYS","UPPER RESPIRATORY TRACT INFECTION","UPPER RESPIRATORY INFECTION",null,"UPPER RESPIRATORY TRACT INFECTION",null,"HLT_0520",null,"HLGT_0489",null,"INFECTIONS AND INFESTATIONS","INFECTIONS AND INFESTATIONS",null,"MILD","N","N","N","N","N","N","N","N","REMOTE","","RECOVERED/RESOLVED",5.0,"Y","","","","","","","",""],["CDISCPILOT01","701","01-701-1442","Xanomeline Low Dose",54,57,"<65",1,"BLACK OR AFRICAN AMERICAN",2,"F","Y","2013-10-26","2014-04-26","2014-01-10","",77.0,null,null,null,"","APPLICATION SITE PRURITUS","APPLICATION SITE ITCHING",null,"APPLICATION SITE PRURITUS",null,"HLT_0317",null,"HLGT_0338",null,"GENERAL DISORDERS AND ADMINISTRATION SITE CONDITIONS","GENERAL DISORDERS AND ADMINISTRATION SITE CONDITIONS",null,"MILD","N","N","N","N","N","N","N","N","PROBABLE","","NOT RECOVERED/NOT RESOLVED",1.0,"Y","Y","Y","Y","","","","DERMATOLOGIC EVENTS","Y"],["CDISCPILOT01","701","01-701-1444","Xanomeline High Dose",81,63,"<65",1,"WHITE",1,"M","Y","2013-01-05","2013-02-12","2013-01-19","",15.0,null,null,null,"","APPLICATION SITE ERYTHEMA","APPLICATION SITE ERYTHEMA",null,"APPLICATION SITE ERYTHEMA",null,"HLT_0617",null,"HLGT_0152",null,"GENERAL DISORDERS AND ADMINISTRATION SITE CONDITIONS","GENERAL DISORDERS AND ADMINISTRATION SITE CONDITIONS",null,"MILD","N","N","N","N","N","N","N","N","POSSIBLE","","NOT RECOVERED/NOT RESOLVED",1.0,"Y","Y","Y","Y","","","","DERMATOLOGIC EVENTS","Y"],["CDISCPILOT01","701","01-701-1444","Xanomeline High Dose",81,63,"<65",1,"WHITE",1,"M","Y","2013-01-05","2013-02-12","2013-01-19","",15.0,null,null,null,"","APPLICATION SITE ERYTHEMA","APPLICATION SITE ERYTHEMA",null,"APPLICATION SITE ERYTHEMA",null,"HLT_0617",null,"HLGT_0152",null,"GENERAL DISORDERS AND ADMINISTRATION SITE CONDITIONS","GENERAL DISORDERS AND ADMINISTRATION SITE CONDITIONS",null,"MODERATE","N","N","N","N","N","N","N","N","POSSIBLE","","NOT RECOVERED/NOT RESOLVED",4.0,"Y","","","","","","","DERMATOLOGIC EVENTS",""],["CDISCPILOT01","701","01-701-1444","Xanomeline High Dose",81,63,"<65",1,"WHITE",1,"M","Y","2013-01-05","2013-02-12","2013-02-04","",31.0,null,null,null,"","APPLICATION SITE IRRITATION","APPLICATION SITE BURNING",null,"APPLICATION SITE IRRITATION",null,"HLT_0061",null,"HLGT_0346",null,"GENERAL DISORDERS AND ADMINISTRATION SITE CONDITIONS","GENERAL DISORDERS AND ADMINISTRATION SITE CONDITIONS",null,"MODERATE","N","N","N","N","N","N","N","N","PROBABLE","","NOT RECOVERED/NOT RESOLVED",6.0,"Y","","","Y","","","","DERMATOLOGIC EVENTS",""],["CDISCPILOT01","701","01-701-1444","Xanomeline High Dose",81,63,"<65",1,"WHITE",1,"M","Y","2013-01-05","2013-02-12","2013-01-19","",15.0,null,null,null,"","APPLICATION SITE PRURITUS","APPLICATION SITE ITCHING",null,"APPLICATION SITE PRURITUS",null,"HLT_0317",null,"HLGT_0338",null,"GENERAL DISORDERS AND ADMINISTRATION SITE CONDITIONS","GENERAL DISORDERS AND ADMINISTRATION SITE CONDITIONS",null,"MILD","N","N","N","N","N","N","N","N","PROBABLE","","NOT RECOVERED/NOT RESOLVED",2.0,"Y","","","Y","","","","DERMATOLOGIC EVENTS",""],["CDISCPILOT01","701","01-701-1444","Xanomeline High Dose",81,63,"<65",1,"WHITE",1,"M","Y","2013-01-05","2013-02-12","2013-01-19","",15.0,null,null,null,"","APPLICATION SITE PRURITUS","APPLICATION SITE ITCHING",null,"APPLICATION SITE PRURITUS",null,"HLT_0317",null,"HLGT_0338",null,"GENERAL DISORDERS AND ADMINISTRATION SITE CONDITIONS","GENERAL DISORDERS AND ADMINISTRATION SITE CONDITIONS",null,"MODERATE","N","N","N","N","N","N","N","N","PROBABLE","","NOT RECOVERED/NOT RESOLVED",5.0,"Y","","","","","","","DERMATOLOGIC EVENTS",""],["CDISCPILOT01","701","01-701-1444","Xanomeline High Dose",81,63,"<65",1,"WHITE",1,"M","Y","2013-01-05","2013-02-12","2013-02-04","",31.0,null,null,null,"","APPLICATION SITE VESICLES","APPLICATION SITE BLISTER",null,"APPLICATION SITE VESICLES",null,"HLT_0180",null,"HLGT_0576",null,"GENERAL DISORDERS AND ADMINISTRATION SITE CONDITIONS","GENERAL DISORDERS AND ADMINISTRATION SITE CONDITIONS",null,"MODERATE","N","N","N","N","N","N","N","N","PROBABLE","","NOT RECOVERED/NOT RESOLVED",7.0,"Y","","","Y","","","","DERMATOLOGIC EVENTS",""],["CDISCPILOT01","701","01-701-1444","Xanomeline High Dose",81,63,"<65",1,"WHITE",1,"M","Y","2013-01-05","2013-02-12","2013-02-08","",35.0,"2013-02-08",35.0,1.0,"DAYS","PARAESTHESIA","TINGLING",null,"PARAESTHESIA",null,"HLT_0481",null,"HLGT_0534",null,"NERVOUS SYSTEM DISORDERS","NERVOUS SYSTEM DISORDERS",null,"MILD","N","N","N","N","N","N","N","N","NONE","","RECOVERED/RESOLVED",8.0,"Y","","Y","Y","","","","",""],["CDISCPILOT01","701","01-701-1444","Xanomeline High Dose",81,63,"<65",1,"WHITE",1,"M","Y","2013-01-05","2013-02-12","2013-01-19","",15.0,null,null,null,"","SALIVARY HYPERSECRETION","HYPERSALIVATION",null,"SALIVARY HYPERSECRETION",null,"HLT_0374",null,"HLGT_0488",null,"GASTROINTESTINAL DISORDERS","GASTROINTESTINAL DISORDERS",null,"MILD","N","N","N","N","N","N","N","N","POSSIBLE","","NOT RECOVERED/NOT RESOLVED",3.0,"Y","","Y","Y","","","","",""],["CDISCPILOT01","702","01-702-1082","Xanomeline Low Dose",54,84,">80",3,"WHITE",1,"F","Y","2013-07-26","2013-10-13","2013-09-09","",46.0,"2013-09-24",61.0,16.0,"DAYS","APPLICATION SITE IRRITATION","APPLICATION SITE IRRITATION",null,"APPLICATION SITE IRRITATION",null,"HLT_0061",null,"HLGT_0346",null,"GENERAL DISORDERS AND ADMINISTRATION SITE CONDITIONS","GENERAL DISORDERS AND ADMINISTRATION SITE CONDITIONS",null,"MILD","N","N","N","N","N","N","N","N","PROBABLE","","RECOVERED/RESOLVED",9.0,"Y","","Y","Y","","","","DERMATOLOGIC EVENTS","Y"],["CDISCPILOT01","702","01-702-1082","Xanomeline Low Dose",54,84,">80",3,"WHITE",1,"F","Y","2013-07-26","2013-10-13","2013-07-07","",-19.0,"2013-07-26",1.0,20.0,"DAYS","NEUTROPHIL COUNT INCREASED","NEUTROPHIL COUNT INCREASED",null,"NEUTROPHIL COUNT INCREASED",null,"HLT_0326",null,"HLGT_0625",null,"INVESTIGATIONS","INVESTIGATIONS",null,"MILD","N","N","N","N","N","N","N","N","NONE","","NOT RECOVERED/NOT RESOLVED",2.0,"","","","","","","","",""],["CDISCPILOT01","702","01-702-1082","Xanomeline Low Dose",54,84,">80",3,"WHITE",1,"F","Y","2013-07-26","2013-10-13","2013-07-07","",-19.0,"2013-07-26",1.0,20.0,"DAYS","NEUTROPHIL COUNT INCREASED","NEUTROPHIL COUNT INCREASED",null,"NEUTROPHIL COUNT INCREASED",null,"HLT_0326",null,"HLGT_0625",null,"INVESTIGATIONS","INVESTIGATIONS",null,"MILD","N","N","N","N","N","N","N","N","NONE","","RECOVERED/RESOLVED",6.0,"","","","","","","","",""],["CDISCPILOT01","702","01-702-1082","Xanomeline Low Dose",54,84,">80",3,"WHITE",1,"F","Y","2013-07-26","2013-10-13","2013-09-02","",39.0,"2013-09-06",43.0,5.0,"DAYS","RECTAL HAEMORRHAGE","RECTAL BLEEDING",null,"RECTAL HAEMORRHAGE",null,"HLT_0353",null,"HLGT_0755",null,"GASTROINTESTINAL DISORDERS","GASTROINTESTINAL DISORDERS",null,"MILD","N","N","N","N","N","N","N","N","NONE","","NOT RECOVERED/NOT RESOLVED",7.0,"Y","Y","Y","Y","","","","",""],["CDISCPILOT01","702","01-702-1082","Xanomeline Low Dose",54,84,">80",3,"WHITE",1,"F","Y","2013-07-26","2013-10-13","2013-09-02","",39.0,"2013-09-06",43.0,5.0,"DAYS","RECTAL HAEMORRHAGE","RECTAL BLEEDING",null,"RECTAL HAEMORRHAGE",null,"HLT_0353",null,"HLGT_0755",null,"GASTROINTESTINAL DISORDERS","GASTROINTESTINAL DISORDERS",null,"MILD","N","N","N","N","N","N","N","N","NONE","","RECOVERED/RESOLVED",8.0,"Y","","","","","","","",""],["CDISCPILOT01","702","01-702-1082","Xanomeline Low Dose",54,84,">80",3,"WHITE",1,"F","Y","2013-07-26","2013-10-13","2013-10-12","",79.0,"2013-10-31",98.0,20.0,"DAYS","SKIN IRRITATION","SKIN IRRITATION",null,"SKIN IRRITATION",null,"HLT_0583",null,"HLGT_0384",null,"SKIN AND SUBCUTANEOUS TISSUE DISORDERS","SKIN AND SUBCUTANEOUS TISSUE DISORDERS",null,"MODERATE","N","N","N","N","N","N","N","N","PROBABLE","","RECOVERED/RESOLVED",10.0,"Y","","Y","Y","","","","DERMATOLOGIC EVENTS",""],["CDISCPILOT01","702","01-702-1082","Xanomeline Low Dose",54,84,">80",3,"WHITE",1,"F","Y","2013-07-26","2013-10-13","2013-07-07","",-19.0,"2013-07-24",-2.0,18.0,"DAYS","URINE ANALYSIS ABNORMAL","URINE ANALYSIS ABNORMAL",null,"URINE ANALYSIS ABNORMAL",null,"HLT_0783",null,"HLGT_0295",null,"INVESTIGATIONS","INVESTIGATIONS",null,"MILD","N","N","N","N","N","N","N","N","NONE","","NOT RECOVERED/NOT RESOLVED",3.0,"","","","","","","","",""],["CDISCPILOT01","702","01-702-1082","Xanomeline Low Dose",54,84,">80",3,"WHITE",1,"F","Y","2013-07-26","2013-10-13","2013-07-07","",-19.0,"2013-07-24",-2.0,18.0,"DAYS","URINE ANALYSIS ABNORMAL","URINE ANALYSIS ABNORMAL",null,"URINE ANALYSIS ABNORMAL",null,"HLT_0783",null,"HLGT_0295",null,"INVESTIGATIONS","INVESTIGATIONS",null,"MILD","N","N","N","N","N","N","N","N","NONE","","RECOVERED/RESOLVED",4.0,"","","","","","","","",""],["CDISCPILOT01","702","01-702-1082","Xanomeline Low Dose",54,84,">80",3,"WHITE",1,"F","Y","2013-07-26","2013-10-13","2013-07-07","",-19.0,"2013-07-26",1.0,20.0,"DAYS","WHITE BLOOD CELL COUNT INCREASED","WBC INCREASED",null,"WHITE BLOOD CELL COUNT INCREASED",null,"HLT_0417",null,"HLGT_0465",null,"INVESTIGATIONS","INVESTIGATIONS",null,"MILD","N","N","N","N","N","N","N","N","NONE","","NOT RECOVERED/NOT RESOLVED",1.0,"","","","","","","","",""],["CDISCPILOT01","702","01-702-1082","Xanomeline Low Dose",54,84,">80",3,"WHITE",1,"F","Y","2013-07-26","2013-10-13","2013-07-07","",-19.0,"2013-07-26",1.0,20.0,"DAYS","WHITE BLOOD CELL COUNT INCREASED","WBC INCREASED",null,"WHITE BLOOD CELL COUNT INCREASED",null,"HLT_0417",null,"HLGT_0465",null,"INVESTIGATIONS","INVESTIGATIONS",null,"MILD","N","N","N","N","N","N","N","N","NONE","","RECOVERED/RESOLVED",5.0,"","","","","","","","",""],["CDISCPILOT01","703","01-703-1042","Placebo",0,64,"<65",1,"WHITE",1,"M","Y","2013-03-02","2013-08-31","2013-03-04","",3.0,"2013-03-05",4.0,2.0,"DAYS","DIARRHOEA","DIARRHEA",null,"DIARRHOEA",null,"HLT_0148",null,"HLGT_0588",null,"GASTROINTESTINAL DISORDERS","GASTROINTESTINAL DISORDERS",null,"MILD","N","N","N","N","N","N","N","N","POSSIBLE","","RECOVERED/RESOLVED",1.0,"Y","Y","Y","Y","","","","",""],["CDISCPILOT01","703","01-703-1042","Placebo",0,64,"<65",1,"WHITE",1,"M","Y","2013-03-02","2013-08-31","2013-03-05","",4.0,"2013-03-06",5.0,2.0,"DAYS","INSOMNIA","INSOMNIA",null,"INSOMNIA",null,"HLT_0297",null,"HLGT_0469",null,"PSYCHIATRIC DISORDERS","PSYCHIATRIC DISORDERS",null,"MILD","N","N","N","N","N","N","N","N","REMOTE","","RECOVERED/RESOLVED",2.0,"Y","","Y","Y","","","","",""],["CDISCPILOT01","703","01-703-1076","Xanomeline High Dose",81,69,"65-80",2,"WHITE",1,"M","Y","2013-10-25","2013-12-24","2013-11-23","",30.0,null,null,null,"","APPLICATION SITE DERMATITIS","APPLICATION SITE RASH",null,"APPLICATION SITE DERMATITIS",null,"HLT_0343",null,"HLGT_0241",null,"GENERAL DISORDERS AND ADMINISTRATION SITE CONDITIONS","GENERAL DISORDERS AND ADMINISTRATION SITE CONDITIONS",null,"MILD","N","N","N","N","N","N","N","N","PROBABLE","","NOT RECOVERED/NOT RESOLVED",5.0,"Y","","","Y","","","","DERMATOLOGIC EVENTS",""],["CDISCPILOT01","703","01-703-1076","Xanomeline High Dose",81,69,"65-80",2,"WHITE",1,"M","Y","2013-10-25","2013-12-24","2013-11-23","",30.0,null,null,null,"","APPLICATION SITE PRURITUS","APPLICATION SITE ITCHING",null,"APPLICATION SITE PRURITUS",null,"HLT_0317",null,"HLGT_0338",null,"GENERAL DISORDERS AND ADMINISTRATION SITE CONDITIONS","GENERAL DISORDERS AND ADMINISTRATION SITE CONDITIONS",null,"MILD","N","N","N","N","N","N","N","N","PROBABLE","","NOT RECOVERED/NOT RESOLVED",4.0,"Y","","Y","Y","","","","DERMATOLOGIC EVENTS","Y"],["CDISCPILOT01","703","01-703-1076","Xanomeline High Dose",81,69,"65-80",2,"WHITE",1,"M","Y","2013-10-25","2013-12-24","2013-11-23","",30.0,null,null,null,"","APPLICATION SITE PRURITUS","APPLICATION SITE ITCHING",null,"APPLICATION SITE PRURITUS",null,"HLT_0317",null,"HLGT_0338",null,"GENERAL DISORDERS AND ADMINISTRATION SITE CONDITIONS","GENERAL DISORDERS AND ADMINISTRATION SITE CONDITIONS",null,"MODERATE","N","N","N","N","N","N","N","N","PROBABLE","","NOT RECOVERED/NOT RESOLVED",7.0,"Y","","","","","","","DERMATOLOGIC EVENTS",""],["CDISCPILOT01","703","01-703-1076","Xanomeline High Dose",81,69,"65-80",2,"WHITE",1,"M","Y","2013-10-25","2013-12-24","2013-11-20","",27.0,null,null,null,"","BENIGN PROSTATIC HYPERPLASIA","BENIGN PROSTATIC HYPERTROPHY",null,"BENIGN PROSTATIC HYPERPLASIA",null,"HLT_0215",null,"HLGT_0568",null,"REPRODUCTIVE SYSTEM AND BREAST DISORDERS","REPRODUCTIVE SYSTEM AND BREAST DISORDERS",null,"MODERATE","N","N","N","N","N","N","N","N","NONE","","NOT RECOVERED/NOT RESOLVED",2.0,"Y","","Y","Y","","","","",""],["CDISCPILOT01","703","01-703-1076","Xanomeline High Dose",81,69,"65-80",2,"WHITE",1,"M","Y","2013-10-25","2013-12-24","2013-11-16","",23.0,"2013-11-16",23.0,1.0,"DAYS","BIOPSY PROSTATE","BIOPSY OF PROSTATE",null,"BIOPSY PROSTATE",null,"HLT_0553",null,"HLGT_0725",null,"INVESTIGATIONS","INVESTIGATIONS",null,"MODERATE","N","N","N","N","N","N","N","N","NONE","","RECOVERED/RESOLVED",1.0,"Y","Y","Y","Y","","","","",""],["CDISCPILOT01","703","01-703-1076","Xanomeline High Dose",81,69,"65-80",2,"WHITE",1,"M","Y","2013-10-25","2013-12-24",null,"",null,null,null,null,"","HYPERCHOLESTEROLAEMIA","HYPERCHOLESTEROLEMIA",null,"HYPERCHOLESTEROLAEMIA",null,"HLT_0025",null,"HLGT_0703",null,"METABOLISM AND NUTRITION DISORDERS","METABOLISM AND NUTRITION DISORDERS",null,"MODERATE","N","N","N","N","N","N","N","N","NONE","","NOT RECOVERED/NOT RESOLVED",3.0,"","","","","","","","",""],["CDISCPILOT01","703","01-703-1076","Xanomeline High Dose",81,69,"65-80",2,"WHITE",1,"M","Y","2013-10-25","2013-12-24","2013-11-25","",32.0,null,null,null,"","HYPERHIDROSIS","SWEATING",null,"HYPERHIDROSIS",null,"HLT_0587",null,"HLGT_0005",null,"SKIN AND SUBCUTANEOUS TISSUE DISORDERS","SKIN AND SUBCUTANEOUS TISSUE DISORDERS",null,"MILD","N","N","N","N","N","N","N","N","POSSIBLE","","NOT RECOVERED/NOT RESOLVED",6.0,"Y","","Y","Y","","","","",""],["CDISCPILOT01","703","01-703-1086","Xanomeline Low Dose",54,71,"65-80",2,"WHITE",1,"M","Y","2012-09-02","2012-12-04","2012-09-13","",12.0,"2013-01-02",123.0,112.0,"DAYS","APPLICATION SITE IRRITATION","APPLICATION SITE IRRITATION",null,"APPLICATION SITE IRRITATION",null,"HLT_0061",null,"HLGT_0346",null,"GENERAL DISORDERS AND ADMINISTRATION SITE CONDITIONS","GENERAL DISORDERS AND ADMINISTRATION SITE CONDITIONS",null,"MILD","N","N","N","N","N","N","N","N","PROBABLE","","NOT RECOVERED/NOT RESOLVED",1.0,"Y","Y","Y","Y","","","","DERMATOLOGIC EVENTS","Y"],["CDISCPILOT01","703","01-703-1086","Xanomeline Low Dose",54,71,"65-80",2,"WHITE",1,"M","Y","2012-09-02","2012-12-04","2012-09-13","",12.0,"2013-01-02",123.0,112.0,"DAYS","APPLICATION SITE IRRITATION","APPLICATION SITE IRRITATION",null,"APPLICATION SITE IRRITATION",null,"HLT_0061",null,"HLGT_0346",null,"GENERAL DISORDERS AND ADMINISTRATION SITE CONDITIONS","GENERAL DISORDERS AND ADMINISTRATION SITE CONDITIONS",null,"MODERATE","N","N","N","N","N","N","N","N","PROBABLE","","NOT RECOVERED/NOT RESOLVED",2.0,"Y","","","","","","","DERMATOLOGIC EVENTS",""],["CDISCPILOT01","703","01-703-1086","Xanomeline Low Dose",54,71,"65-80",2,"WHITE",1,"M","Y","2012-09-02","2012-12-04","2012-09-13","",12.0,"2013-01-02",123.0,112.0,"DAYS","APPLICATION SITE IRRITATION","APPLICATION SITE IRRITATION",null,"APPLICATION SITE IRRITATION",null,"HLT_0061",null,"HLGT_0346",null,"GENERAL DISORDERS AND ADMINISTRATION SITE CONDITIONS","GENERAL DISORDERS AND ADMINISTRATION SITE CONDITIONS",null,"SEVERE","N","N","N","N","N","N","N","N","PROBABLE","","NOT RECOVERED/NOT RESOLVED",3.0,"Y","","","","","","","DERMATOLOGIC EVENTS",""],["CDISCPILOT01","703","01-703-1086","Xanomeline Low Dose",54,71,"65-80",2,"WHITE",1,"M","Y","2012-09-02","2012-12-04","2012-09-13","",12.0,"2013-01-02",123.0,112.0,"DAYS","APPLICATION SITE IRRITATION","APPLICATION SITE IRRITATION",null,"APPLICATION SITE IRRITATION",null,"HLT_0061",null,"HLGT_0346",null,"GENERAL DISORDERS AND ADMINISTRATION SITE CONDITIONS","GENERAL DISORDERS AND ADMINISTRATION SITE CONDITIONS",null,"MILD","N","N","N","N","N","N","N","N","PROBABLE","","RECOVERED/RESOLVED",6.0,"Y","","","","","","","DERMATOLOGIC EVENTS",""],["CDISCPILOT01","703","01-703-1086","Xanomeline Low Dose",54,71,"65-80",2,"WHITE",1,"M","Y","2012-09-02","2012-12-04","2012-10-09","",38.0,"2012-10-15",44.0,7.0,"DAYS","CHILLS","CHILLS",null,"CHILLS",null,"HLT_0586",null,"HLGT_0161",null,"GENERAL DISORDERS AND ADMINISTRATION SITE CONDITIONS","GENERAL DISORDERS AND ADMINISTRATION SITE CONDITIONS",null,"MILD","N","N","N","N","N","N","N","N","POSSIBLE","","NOT RECOVERED/NOT RESOLVED",4.0,"Y","","","Y","","","","",""],["CDISCPILOT01","703","01-703-1086","Xanomeline Low Dose",54,71,"65-80",2,"WHITE",1,"M","Y","2012-09-02","2012-12-04","2012-10-09","",38.0,"2012-10-15",44.0,7.0,"DAYS","CHILLS","CHILLS",null,"CHILLS",null,"HLT_0586",null,"HLGT_0161",null,"GENERAL DISORDERS AND ADMINISTRATION SITE CONDITIONS","GENERAL DISORDERS AND ADMINISTRATION SITE CONDITIONS",null,"MILD","N","N","N","N","N","N","N","N","POSSIBLE","","RECOVERED/RESOLVED",5.0,"Y","","","","","","","",""],["CDISCPILOT01","703","01-703-1100","Placebo",0,84,">80",3,"WHITE",1,"F","Y","2013-03-13","2013-09-14","2013-04-05","",24.0,"2013-04-16",35.0,12.0,"DAYS","APPLICATION SITE IRRITATION","APPLICATION SITE IRRITATION",null,"APPLICATION SITE IRRITATION",null,"HLT_0061",null,"HLGT_0346",null,"GENERAL DISORDERS AND ADMINISTRATION SITE CONDITIONS","GENERAL DISORDERS AND ADMINISTRATION SITE CONDITIONS",null,"MODERATE","N","N","N","N","N","N","N","N","PROBABLE","","NOT RECOVERED/NOT RESOLVED",1.0,"Y","Y","Y","Y","","","","DERMATOLOGIC EVENTS","Y"],["CDISCPILOT01","703","01-703-1100","Placebo",0,84,">80",3,"WHITE",1,"F","Y","2013-03-13","2013-09-14","2013-04-05","",24.0,"2013-04-16",35.0,12.0,"DAYS","APPLICATION SITE IRRITATION","APPLICATION SITE IRRITATION",null,"APPLICATION SITE IRRITATION",null,"HLT_0061",null,"HLGT_0346",null,"GENERAL DISORDERS AND ADMINISTRATION SITE CONDITIONS","GENERAL DISORDERS AND ADMINISTRATION SITE CONDITIONS",null,"MILD","N","N","N","N","N","N","N","N","PROBABLE","","NOT RECOVERED/NOT RESOLVED",2.0,"Y","","","","","","","DERMATOLOGIC EVENTS",""],["CDISCPILOT01","703","01-703-1100","Placebo",0,84,">80",3,"WHITE",1,"F","Y","2013-03-13","2013-09-14","2013-04-05","",24.0,"2013-04-16",35.0,12.0,"DAYS","APPLICATION SITE IRRITATION","APPLICATION SITE IRRITATION",null,"APPLICATION SITE IRRITATION",null,"HLT_0061",null,"HLGT_0346",null,"GENERAL DISORDERS AND ADMINISTRATION SITE CONDITIONS","GENERAL DISORDERS AND ADMINISTRATION SITE CONDITIONS",null,"MILD","N","N","N","N","N","N","N","N","PROBABLE","","RECOVERED/RESOLVED",3.0,"Y","","","","","","","DERMATOLOGIC EVENTS",""],["CDISCPILOT01","703","01-703-1100","Placebo",0,84,">80",3,"WHITE",1,"F","Y","2013-03-13","2013-09-14","2013-04-25","",44.0,"2013-04-25",44.0,1.0,"DAYS","CATARACT OPERATION","CATARACT EXTRACTION",null,"CATARACT OPERATION",null,"HLT_0432",null,"HLGT_0058",null,"SURGICAL AND MEDICAL PROCEDURES","SURGICAL AND MEDICAL PROCEDURES",null,"MODERATE","N","N","N","N","N","N","N","N","NONE","","RECOVERED/RESOLVED",4.0,"Y","","Y","Y","","","","",""],["CDISCPILOT01","703","01-703-1100","Placebo",0,84,">80",3,"WHITE",1,"F","Y","2013-03-13","2013-09-14","2013-02-28","",-13.0,"2013-09-14",186.0,199.0,"DAYS","OEDEMA PERIPHERAL","LEG EDEMA",null,"OEDEMA PERIPHERAL",null,"HLT_0661",null,"HLGT_0137",null,"GENERAL DISORDERS AND ADMINISTRATION SITE CONDITIONS","GENERAL DISORDERS AND ADMINISTRATION SITE CONDITIONS",null,"MODERATE","N","N","N","N","N","N","N","N","REMOTE","","NOT RECOVERED/NOT RESOLVED",6.0,"","","","","","","","",""],["CDISCPILOT01","703","01-703-1100","Placebo",0,84,">80",3,"WHITE",1,"F","Y","2013-03-13","2013-09-14","2013-02-28","",-13.0,"2013-09-14",186.0,199.0,"DAYS","OEDEMA PERIPHERAL","LEG EDEMA",null,"OEDEMA PERIPHERAL",null,"HLT_0661",null,"HLGT_0137",null,"GENERAL DISORDERS AND ADMINISTRATION SITE CONDITIONS","GENERAL DISORDERS AND ADMINISTRATION SITE CONDITIONS",null,"MODERATE","N","N","N","N","N","N","N","N","REMOTE","","RECOVERED/RESOLVED",8.0,"","","","","","","","",""],["CDISCPILOT01","703","01-703-1100","Placebo",0,84,">80",3,"WHITE",1,"F","Y","2013-03-13","2013-09-14","2013-07-17","",127.0,"2013-09-14",186.0,60.0,"DAYS","OEDEMA PERIPHERAL","LEG EDEMA",null,"OEDEMA PERIPHERAL",null,"HLT_0661",null,"HLGT_0137",null,"GENERAL DISORDERS AND ADMINISTRATION SITE CONDITIONS","GENERAL DISORDERS AND ADMINISTRATION SITE CONDITIONS",null,"MILD","N","N","N","N","N","N","N","N","REMOTE","","NOT RECOVERED/NOT RESOLVED",7.0,"Y","","","Y","","","","",""],["CDISCPILOT01","703","01-703-1100","Placebo",0,84,">80",3,"WHITE",1,"F","Y","2013-03-13","2013-09-14","2013-07-17","",127.0,"2013-09-14",186.0,60.0,"DAYS","OEDEMA PERIPHERAL","LEG EDEMA",null,"OEDEMA PERIPHERAL",null,"HLT_0661",null,"HLGT_0137",null,"GENERAL DISORDERS AND ADMINISTRATION SITE CONDITIONS","GENERAL DISORDERS AND ADMINISTRATION SITE CONDITIONS",null,"MILD","N","N","N","N","N","N","N","N","REMOTE","","RECOVERED/RESOLVED",9.0,"Y","","","","","","","",""],["CDISCPILOT01","703","01-703-1100","Placebo",0,84,">80",3,"WHITE",1,"F","Y","2013-03-13","2013-09-14","2013-05-27","",76.0,"2013-06-03",83.0,8.0,"DAYS","UPPER RESPIRATORY TRACT INFECTION","UPPER RESPIRATORY INFECTION",null,"UPPER RESPIRATORY TRACT INFECTION",null,"HLT_0520",null,"HLGT_0489",null,"INFECTIONS AND INFESTATIONS","INFECTIONS AND INFESTATIONS",null,"MODERATE","N","N","N","N","N","N","N","N","REMOTE","","RECOVERED/RESOLVED",5.0,"Y","","Y","Y","","","","",""],["CDISCPILOT01","703","01-703-1119","Xanomeline Low Dose",54,81,">80",3,"WHITE",1,"F","Y","2013-02-20","2013-06-13","2013-03-16","",25.0,null,null,null,"","APPLICATION SITE IRRITATION","APPLICATION SITE IRRITATION",null,"APPLICATION SITE IRRITATION",null,"HLT_0061",null,"HLGT_0346",null,"GENERAL DISORDERS AND ADMINISTRATION SITE CONDITIONS","GENERAL DISORDERS AND ADMINISTRATION SITE CONDITIONS",null,"MODERATE","N","N","N","N","N","N","N","N","PROBABLE","","NOT RECOVERED/NOT RESOLVED",1.0,"Y","Y","Y","Y","","","","DERMATOLOGIC EVENTS","Y"],["CDISCPILOT01","703","01-703-1119","Xanomeline Low Dose",54,81,">80",3,"WHITE",1,"F","Y","2013-02-20","2013-06-13","2013-03-16","",25.0,null,null,null,"","APPLICATION SITE IRRITATION","APPLICATION SITE IRRITATION",null,"APPLICATION SITE IRRITATION",null,"HLT_0061",null,"HLGT_0346",null,"GENERAL DISORDERS AND ADMINISTRATION SITE CONDITIONS","GENERAL DISORDERS AND ADMINISTRATION SITE CONDITIONS",null,"SEVERE","N","N","N","N","N","N","N","N","PROBABLE","","NOT RECOVERED/NOT RESOLVED",2.0,"Y","","","","","","","DERMATOLOGIC EVENTS",""],["CDISCPILOT01","703","01-703-1119","Xanomeline Low Dose",54,81,">80",3,"WHITE",1,"F","Y","2013-02-20","2013-06-13","2013-05-04","",74.0,null,null,null,"","PRURITUS","ITCHING",null,"PRURITUS",null,"HLT_0778",null,"HLGT_0695",null,"SKIN AND SUBCUTANEOUS TISSUE DISORDERS","SKIN AND SUBCUTANEOUS TISSUE DISORDERS",null,"MODERATE","N","N","N","N","N","N","N","N","PROBABLE","","NOT RECOVERED/NOT RESOLVED",3.0,"Y","","Y","Y","","","","DERMATOLOGIC EVENTS",""],["CDISCPILOT01","703","01-703-1119","Xanomeline Low Dose",54,81,">80",3,"WHITE",1,"F","Y","2013-02-20","2013-06-13","2013-05-04","",74.0,null,null,null,"","PRURITUS","ITCHING",null,"PRURITUS",null,"HLT_0778",null,"HLGT_0695",null,"SKIN AND SUBCUTANEOUS TISSUE DISORDERS","SKIN AND SUBCUTANEOUS TISSUE DISORDERS",null,"SEVERE","N","N","N","N","N","N","N","N","PROBABLE","","NOT RECOVERED/NOT RESOLVED",4.0,"Y","","","","","","","DERMATOLOGIC EVENTS",""],["CDISCPILOT01","703","01-703-1175","Placebo",0,75,"65-80",2,"WHITE",1,"M","Y","2013-12-20","2013-12-26","2013-12-18","",-2.0,null,null,null,"","ATRIOVENTRICULAR BLOCK SECOND DEGREE","HEART BLOCK SECOND DEGREE",null,"ATRIOVENTRICULAR BLOCK SECOND DEGREE",null,"HLT_0415",null,"HLGT_0086",null,"CARDIAC DISORDERS","CARDIAC DISORDERS",null,"SEVERE","N","N","N","N","N","N","N","N","NONE","","NOT RECOVERED/NOT RESOLVED",1.0,"","","","","","","","",""],["CDISCPILOT01","703","01-703-1182","Xanomeline Low Dose",54,84,">80",3,"WHITE",1,"M","Y","2013-10-17","2013-12-11","2013-10-31","",15.0,null,null,null,"","APPLICATION SITE ERYTHEMA","APPLICATION SITE REDNESS",null,"APPLICATION SITE ERYTHEMA",null,"HLT_0617",null,"HLGT_0152",null,"GENERAL DISORDERS AND ADMINISTRATION SITE CONDITIONS","GENERAL DISORDERS AND ADMINISTRATION SITE CONDITIONS",null,"MILD","N","N","N","N","N","N","N","N","POSSIBLE","","NOT RECOVERED/NOT RESOLVED",1.0,"Y","Y","Y","Y","","","","DERMATOLOGIC EVENTS","Y"],["CDISCPILOT01","703","01-703-1182","Xanomeline Low Dose",54,84,">80",3,"WHITE",1,"M","Y","2013-10-17","2013-12-11","2013-10-31","",15.0,null,null,null,"","APPLICATION SITE ERYTHEMA","APPLICATION SITE REDNESS",null,"APPLICATION SITE ERYTHEMA",null,"HLT_0617",null,"HLGT_0152",null,"GENERAL DISORDERS AND ADMINISTRATION SITE CONDITIONS","GENERAL DISORDERS AND ADMINISTRATION SITE CONDITIONS",null,"MODERATE","N","N","N","N","N","N","N","N","POSSIBLE","","NOT RECOVERED/NOT RESOLVED",2.0,"Y","","","","","","","DERMATOLOGIC EVENTS",""],["CDISCPILOT01","703","01-703-1182","Xanomeline Low Dose",54,84,">80",3,"WHITE",1,"M","Y","2013-10-17","2013-12-11","2013-11-22","",37.0,null,null,null,"","SOMNOLENCE","DROWSINESS",null,"SOMNOLENCE",null,"HLT_0160",null,"HLGT_0254",null,"NERVOUS SYSTEM DISORDERS","NERVOUS SYSTEM DISORDERS",null,"MILD","N","N","N","N","N","N","N","N","REMOTE","","NOT RECOVERED/NOT RESOLVED",3.0,"Y","","Y","Y","","","","",""],["CDISCPILOT01","703","01-703-1182","Xanomeline Low Dose",54,84,">80",3,"WHITE",1,"M","Y","2013-10-17","2013-12-11","2013-11-22","",37.0,null,null,null,"","SOMNOLENCE","DROWSINESS",null,"SOMNOLENCE",null,"HLT_0160",null,"HLGT_0254",null,"NERVOUS SYSTEM DISORDERS","NERVOUS SYSTEM DISORDERS",null,"MODERATE","N","N","N","N","N","N","N","N","REMOTE","","NOT RECOVERED/NOT RESOLVED",4.0,"Y","","","","","","","",""],["CDISCPILOT01","703","01-703-1210","Placebo",0,72,"65-80",2,"WHITE",1,"F","Y","2013-03-16","2013-09-06","2013-05-04","",50.0,null,null,null,"","DECREASED APPETITE","DECREASED APPETITE",null,"DECREASED APPETITE",null,"HLT_0574",null,"HLGT_0231",null,"METABOLISM AND NUTRITION DISORDERS","METABOLISM AND NUTRITION DISORDERS",null,"MILD","N","N","N","N","N","N","N","N","POSSIBLE","","NOT RECOVERED/NOT RESOLVED",2.0,"Y","","Y","Y","","","","",""],["CDISCPILOT01","703","01-703-1210","Placebo",0,72,"65-80",2,"WHITE",1,"F","Y","2013-03-16","2013-09-06","2013-05-04","",50.0,null,null,null,"","DECREASED APPETITE","DECREASED APPETITE",null,"DECREASED APPETITE",null,"HLT_0574",null,"HLGT_0231",null,"METABOLISM AND NUTRITION DISORDERS","METABOLISM AND NUTRITION DISORDERS",null,"MODERATE","N","N","N","N","N","N","N","N","POSSIBLE","","NOT RECOVERED/NOT RESOLVED",3.0,"Y","","","","","","","",""],["CDISCPILOT01","703","01-703-1210","Placebo",0,72,"65-80",2,"WHITE",1,"F","Y","2013-03-16","2013-09-06","2013-04-02","",18.0,null,null,null,"","DISORIENTATION","DISORIENTATION",null,"DISORIENTATION",null,"HLT_0299",null,"HLGT_0307",null,"PSYCHIATRIC DISORDERS","PSYCHIATRIC DISORDERS",null,"MILD","N","N","N","N","N","N","N","N","REMOTE","","NOT RECOVERED/NOT RESOLVED",1.0,"Y","Y","Y","Y","","","","",""],["CDISCPILOT01","703","01-703-1258","Xanomeline High Dose",81,78,"65-80",2,"WHITE",1,"F","Y","2012-07-20","2013-01-11","2012-09-04","",47.0,"2013-01-25",190.0,144.0,"DAYS","APPLICATION SITE DERMATITIS","APPLICATION SITE RASH",null,"APPLICATION SITE DERMATITIS",null,"HLT_0343",null,"HLGT_0241",null,"GENERAL DISORDERS AND ADMINISTRATION SITE CONDITIONS","GENERAL DISORDERS AND ADMINISTRATION SITE CONDITIONS",null,"MILD","N","N","N","N","N","N","N","N","PROBABLE","","NOT RECOVERED/NOT RESOLVED",4.0,"Y","","Y","Y","","","","DERMATOLOGIC EVENTS","Y"],["CDISCPILOT01","703","01-703-1258","Xanomeline High Dose",81,78,"65-80",2,"WHITE",1,"F","Y","2012-07-20","2013-01-11","2012-09-04","",47.0,"2013-01-25",190.0,144.0,"DAYS","APPLICATION SITE DERMATITIS","APPLICATION SITE RASH",null,"APPLICATION SITE DERMATITIS",null,"HLT_0343",null,"HLGT_0241",null,"GENERAL DISORDERS AND ADMINISTRATION SITE CONDITIONS","GENERAL DISORDERS AND ADMINISTRATION SITE CONDITIONS",null,"MODERATE","N","N","N","N","N","N","N","N","PROBABLE","","NOT RECOVERED/NOT RESOLVED",6.0,"Y","","","","","","","DERMATOLOGIC EVENTS",""],["CDISCPILOT01","703","01-703-1258","Xanomeline High Dose",81,78,"65-80",2,"WHITE",1,"F","Y","2012-07-20","2013-01-11","2012-09-04","",47.0,"2013-01-25",190.0,144.0,"DAYS","APPLICATION SITE DERMATITIS","APPLICATION SITE RASH",null,"APPLICATION SITE DERMATITIS",null,"HLT_0343",null,"HLGT_0241",null,"GENERAL DISORDERS AND ADMINISTRATION SITE CONDITIONS","GENERAL DISORDERS AND ADMINISTRATION SITE CONDITIONS",null,"MILD","N","N","N","N","N","N","N","N","PROBABLE","","RECOVERED/RESOLVED",7.0,"Y","","","","","","","DERMATOLOGIC EVENTS",""],["CDISCPILOT01","703","01-703-1258","Xanomeline High Dose",81,78,"65-80",2,"WHITE",1,"F","Y","2012-07-20","2013-01-11",null,"",null,null,null,null,"","DIZZINESS","DIZZINESS",null,"DIZZINESS",null,"HLT_0619",null,"HLGT_0751",null,"NERVOUS SYSTEM DISORDERS","NERVOUS SYSTEM DISORDERS",null,"MODERATE","N","N","N","N","N","N","N","N","NONE","","NOT RECOVERED/NOT RESOLVED",2.0,"","","","","","","","",""],["CDISCPILOT01","703","01-703-1258","Xanomeline High Dose",81,78,"65-80",2,"WHITE",1,"F","Y","2012-07-20","2013-01-11",null,"",null,null,null,null,"","DIZZINESS","DIZZINESS",null,"DIZZINESS",null,"HLT_0619",null,"HLGT_0751",null,"NERVOUS SYSTEM DISORDERS","NERVOUS SYSTEM DISORDERS",null,"MILD","N","N","N","N","N","N","N","N","NONE","","NOT RECOVERED/NOT RESOLVED",5.0,"","","","","","","","",""],["CDISCPILOT01","703","01-703-1258","Xanomeline High Dose",81,78,"65-80",2,"WHITE",1,"F","Y","2012-07-20","2013-01-11","2012-08-11","",23.0,"2012-08-19",31.0,9.0,"DAYS","UPPER RESPIRATORY TRACT INFECTION","UPPER RESPIRATORY INFECTION",null,"UPPER RESPIRATORY TRACT INFECTION",null,"HLT_0520",null,"HLGT_0489",null,"INFECTIONS AND INFESTATIONS","INFECTIONS AND INFESTATIONS",null,"MILD","N","N","N","N","N","N","N","N","NONE","","NOT RECOVERED/NOT RESOLVED",1.0,"Y","Y","Y","Y","","","","",""],["CDISCPILOT01","703","01-703-1258","Xanomeline High Dose",81,78,"65-80",2,"WHITE",1,"F","Y","2012-07-20","2013-01-11","2012-08-11","",23.0,"2012-08-19",31.0,9.0,"DAYS","UPPER RESPIRATORY TRACT INFECTION","UPPER RESPIRATORY INFECTION",null,"UPPER RESPIRATORY TRACT INFECTION",null,"HLT_0520",null,"HLGT_0489",null,"INFECTIONS AND INFESTATIONS","INFECTIONS AND INFESTATIONS",null,"MILD","N","N","N","N","N","N","N","N","NONE","","RECOVERED/RESOLVED",3.0,"Y","","","","","","","",""],["CDISCPILOT01","703","01-703-1295","Xanomeline High Dose",81,88,">80",3,"WHITE",1,"F","Y","2013-11-21","2014-04-19","2013-12-28","",38.0,null,null,null,"","ARTHRITIS","ARTHRITIS",null,"ARTHRITIS",null,"HLT_0019",null,"HLGT_0587",null,"MUSCULOSKELETAL AND CONNECTIVE TISSUE DISORDERS","MUSCULOSKELETAL AND CONNECTIVE TISSUE DISORDERS",null,"MODERATE","N","N","N","N","N","N","N","N","NONE","","NOT RECOVERED/NOT RESOLVED",1.0,"Y","Y","Y","Y","","","","",""],["CDISCPILOT01","703","01-703-1299","Placebo",0,81,">80",3,"WHITE",1,"F","Y","2012-09-12","2013-03-13",null,"",null,null,null,null,"","GLAUCOMA","GLAUCOMA",null,"GLAUCOMA",null,"HLT_0556",null,"HLGT_0734",null,"EYE DISORDERS","EYE DISORDERS",null,"MODERATE","N","N","N","N","N","N","N","N","NONE","","NOT RECOVERED/NOT RESOLVED",3.0,"","","","","","","","",""],["CDISCPILOT01","703","01-703-1299","Placebo",0,81,">80",3,"WHITE",1,"F","Y","2012-09-12","2013-03-13","2013-03-01","",171.0,null,null,null,"","HYPOTENSION","HYPOTENSION",null,"HYPOTENSION",null,"HLT_0761",null,"HLGT_0412",null,"VASCULAR DISORDERS","VASCULAR DISORDERS",null,"MILD","N","N","N","N","N","N","N","N","REMOTE","","NOT RECOVERED/NOT RESOLVED",4.0,"Y","","Y","Y","","","","",""],["CDISCPILOT01","703","01-703-1299","Placebo",0,81,">80",3,"WHITE",1,"F","Y","2012-09-12","2013-03-13","2013-03-01","",171.0,null,null,null,"","HYPOTENSION","HYPOTENSION",null,"HYPOTENSION",null,"HLT_0761",null,"HLGT_0412",null,"VASCULAR DISORDERS","VASCULAR DISORDERS",null,"MODERATE","N","N","N","N","N","N","N","N","REMOTE","","NOT RECOVERED/NOT RESOLVED",6.0,"Y","","","","","","","",""],["CDISCPILOT01","703","01-703-1299","Placebo",0,81,">80",3,"WHITE",1,"F","Y","2012-09-12","2013-03-13","2013-03-13","",183.0,null,null,null,"","MYOCARDIAL INFARCTION","MYOCARDIAL INFARCTION",null,"MYOCARDIAL INFARCTION",null,"HLT_0649",null,"HLGT_0688",null,"CARDIAC DISORDERS","CARDIAC DISORDERS",null,"MODERATE","N","N","N","N","N","N","N","N","REMOTE","","NOT RECOVERED/NOT RESOLVED",8.0,"Y","","","Y","","","","",""],["CDISCPILOT01","703","01-703-1299","Placebo",0,81,">80",3,"WHITE",1,"F","Y","2012-09-12","2013-03-13","2013-03-01","",171.0,null,null,null,"","TACHYCARDIA","TACHYCARDIA",null,"TACHYCARDIA",null,"HLT_0082",null,"HLGT_0574",null,"CARDIAC DISORDERS","CARDIAC DISORDERS",null,"MILD","N","N","N","N","N","N","N","N","REMOTE","","NOT RECOVERED/NOT RESOLVED",5.0,"Y","","Y","Y","","","","",""],["CDISCPILOT01","703","01-703-1299","Placebo",0,81,">80",3,"WHITE",1,"F","Y","2012-09-12","2013-03-13","2013-03-01","",171.0,null,null,null,"","TACHYCARDIA","TACHYCARDIA",null,"TACHYCARDIA",null,"HLT_0082",null,"HLGT_0574",null,"CARDIAC DISORDERS","CARDIAC DISORDERS",null,"MODERATE","N","N","N","N","N","N","N","N","REMOTE","","NOT RECOVERED/NOT RESOLVED",7.0,"Y","","","","","","","",""],["CDISCPILOT01","703","01-703-1299","Placebo",0,81,">80",3,"WHITE",1,"F","Y","2012-09-12","2013-03-13","2012-09-27","",16.0,"2012-10-06",25.0,10.0,"DAYS","UPPER RESPIRATORY TRACT INFECTION","UPPER RESPIRATORY INFECTION",null,"UPPER RESPIRATORY TRACT INFECTION",null,"HLT_0520",null,"HLGT_0489",null,"INFECTIONS AND INFESTATIONS","INFECTIONS AND INFESTATIONS",null,"MILD","N","N","N","N","N","N","N","N","NONE","","NOT RECOVERED/NOT RESOLVED",1.0,"Y","Y","Y","Y","","","","",""],["CDISCPILOT01","703","01-703-1299","Placebo",0,81,">80",3,"WHITE",1,"F","Y","2012-09-12","2013-03-13","2012-09-27","",16.0,"2012-10-06",25.0,10.0,"DAYS","UPPER RESPIRATORY TRACT INFECTION","UPPER RESPIRATORY INFECTION",null,"UPPER RESPIRATORY TRACT INFECTION",null,"HLT_0520",null,"HLGT_0489",null,"INFECTIONS AND INFESTATIONS","INFECTIONS AND INFESTATIONS",null,"MILD","N","N","N","N","N","N","N","N","NONE","","RECOVERED/RESOLVED",2.0,"Y","","","","","","","",""],["CDISCPILOT01","703","01-703-1335","Xanomeline High Dose",81,67,"65-80",2,"BLACK OR AFRICAN AMERICAN",2,"F","Y","2014-03-17","2014-05-07","2014-03-15","",-2.0,"2014-03-30",14.0,16.0,"DAYS","ATRIOVENTRICULAR BLOCK SECOND DEGREE","AV BLOCK SECOND DEGREE",null,"ATRIOVENTRICULAR BLOCK SECOND DEGREE",null,"HLT_0415",null,"HLGT_0086",null,"CARDIAC DISORDERS","CARDIAC DISORDERS",null,"MILD","N","N","N","N","N","N","N","N","NONE","","NOT RECOVERED/NOT RESOLVED",1.0,"","","","","","","","",""],["CDISCPILOT01","703","01-703-1335","Xanomeline High Dose",81,67,"65-80",2,"BLACK OR AFRICAN AMERICAN",2,"F","Y","2014-03-17","2014-05-07","2014-03-15","",-2.0,"2014-03-30",14.0,16.0,"DAYS","ATRIOVENTRICULAR BLOCK SECOND DEGREE","AV BLOCK SECOND DEGREE",null,"ATRIOVENTRICULAR BLOCK SECOND DEGREE",null,"HLT_0415",null,"HLGT_0086",null,"CARDIAC DISORDERS","CARDIAC DISORDERS",null,"MILD","N","N","N","N","N","N","N","N","NONE","","RECOVERED/RESOLVED",2.0,"","","","","","","","",""],["CDISCPILOT01","703","01-703-1403","Xanomeline High Dose",81,67,"65-80",2,"WHITE",1,"M","Y","2012-12-12","2012-12-13","2012-12-15","",4.0,"2012-12-16",5.0,2.0,"DAYS","CHEST DISCOMFORT","CHEST TIGHTNESS",null,"CHEST DISCOMFORT",null,"HLT_0593",null,"HLGT_0441",null,"GENERAL DISORDERS AND ADMINISTRATION SITE CONDITIONS","GENERAL DISORDERS AND ADMINISTRATION SITE CONDITIONS",null,"MILD","N","N","N","N","N","N","N","N","PROBABLE","","RECOVERED/RESOLVED",4.0,"Y","","Y","Y","","","","",""],["CDISCPILOT01","703","01-703-1403","Xanomeline High Dose",81,67,"65-80",2,"WHITE",1,"M","Y","2012-12-12","2012-12-13","2012-12-13","",2.0,"2012-12-14",3.0,2.0,"DAYS","DIARRHOEA","DIARRHEA",null,"DIARRHOEA",null,"HLT_0148",null,"HLGT_0588",null,"GASTROINTESTINAL DISORDERS","GASTROINTESTINAL DISORDERS",null,"MODERATE","N","N","N","N","N","N","N","N","PROBABLE","","RECOVERED/RESOLVED",2.0,"Y","","Y","Y","","","","",""],["CDISCPILOT01","703","01-703-1403","Xanomeline High Dose",81,67,"65-80",2,"WHITE",1,"M","Y","2012-12-12","2012-12-13","2012-12-13","",2.0,"2012-12-14",3.0,2.0,"DAYS","VOMITING","VOMITING",null,"VOMITING",null,"HLT_0016",null,"HLGT_0350",null,"GASTROINTESTINAL DISORDERS","GASTROINTESTINAL DISORDERS",null,"MODERATE","N","N","N","N","N","N","N","N","PROBABLE","","RECOVERED/RESOLVED",3.0,"Y","","","Y","","","","",""],["CDISCPILOT01","703","01-703-1403","Xanomeline High Dose",81,67,"65-80",2,"WHITE",1,"M","Y","2012-12-12","2012-12-13","2012-12-12","",1.0,"2012-12-19",8.0,8.0,"DAYS","WEIGHT DECREASED","WEIGHT LOSS",null,"WEIGHT DECREASED",null,"HLT_0158",null,"HLGT_0778",null,"INVESTIGATIONS","INVESTIGATIONS",null,"MODERATE","N","N","N","N","N","N","N","N","NONE","","NOT RECOVERED/NOT RESOLVED",1.0,"Y","Y","Y","Y","","","","",""],["CDISCPILOT01","703","01-703-1403","Xanomeline High Dose",81,67,"65-80",2,"WHITE",1,"M","Y","2012-12-12","2012-12-13","2012-12-12","",1.0,"2012-12-19",8.0,8.0,"DAYS","WEIGHT DECREASED","WEIGHT LOSS",null,"WEIGHT DECREASED",null,"HLT_0158",null,"HLGT_0778",null,"INVESTIGATIONS","INVESTIGATIONS",null,"MODERATE","N","N","N","N","N","N","N","N","NONE","","RECOVERED/RESOLVED",5.0,"Y","","","","","","","",""],["CDISCPILOT01","703","01-703-1439","Xanomeline High Dose",81,76,"65-80",2,"WHITE",1,"F","Y","2014-03-12","2014-09-11","2014-04-24","",44.0,null,null,null,"","APPLICATION SITE IRRITATION","APPLICATION SITE IRRITATION",null,"APPLICATION SITE IRRITATION",null,"HLT_0061",null,"HLGT_0346",null,"GENERAL DISORDERS AND ADMINISTRATION SITE CONDITIONS","GENERAL DISORDERS AND ADMINISTRATION SITE CONDITIONS",null,"MILD","N","N","N","N","N","N","N","N","PROBABLE","","NOT RECOVERED/NOT RESOLVED",1.0,"Y","Y","Y","Y","","","","DERMATOLOGIC EVENTS","Y"],["CDISCPILOT01","703","01-703-1439","Xanomeline High Dose",81,76,"65-80",2,"WHITE",1,"F","Y","2014-03-12","2014-09-11","2014-04-24","",44.0,null,null,null,"","APPLICATION SITE IRRITATION","APPLICATION SITE IRRITATION",null,"APPLICATION SITE IRRITATION",null,"HLT_0061",null,"HLGT_0346",null,"GENERAL DISORDERS AND ADMINISTRATION SITE CONDITIONS","GENERAL DISORDERS AND ADMINISTRATION SITE CONDITIONS",null,"MODERATE","N","N","N","N","N","N","N","N","PROBABLE","","NOT RECOVERED/NOT RESOLVED",2.0,"Y","","","","","","","DERMATOLOGIC EVENTS",""],["CDISCPILOT01","704","01-704-1008","Xanomeline High Dose",81,76,"65-80",2,"WHITE",1,"F","Y","2013-01-13","2013-02-21","2013-01-30","",18.0,null,null,null,"","HYPERHIDROSIS","SWEATING INCREASED",null,"HYPERHIDROSIS",null,"HLT_0587",null,"HLGT_0005",null,"SKIN AND SUBCUTANEOUS TISSUE DISORDERS","SKIN AND SUBCUTANEOUS TISSUE DISORDERS",null,"MILD","N","N","N","N","N","N","N","N","POSSIBLE","","NOT RECOVERED/NOT RESOLVED",1.0,"Y","Y","Y","Y","","","","",""],["CDISCPILOT01","704","01-704-1008","Xanomeline High Dose",81,76,"65-80",2,"WHITE",1,"F","Y","2013-01-13","2013-02-21","2013-02-25","",44.0,null,null,null,"","SINUS BRADYCARDIA","SINUS BRADYCARDIA",null,"SINUS BRADYCARDIA",null,"HLT_0644",null,"HLGT_0500",null,"CARDIAC DISORDERS","CARDIAC DISORDERS",null,"MODERATE","N","N","N","N","N","N","N","N","NONE","","NOT RECOVERED/NOT RESOLVED",3.0,"Y","","Y","Y","","","","",""],["CDISCPILOT01","704","01-704-1008","Xanomeline High Dose",81,76,"65-80",2,"WHITE",1,"F","Y","2013-01-13","2013-02-21","2013-02-21","",40.0,"2013-02-21",40.0,1.0,"DAYS","TRANSIENT ISCHAEMIC ATTACK","TRANSIENT ISCHEMIC ATTACKS",null,"TRANSIENT ISCHAEMIC ATTACK",null,"HLT_0041",null,"HLGT_0433",null,"NERVOUS SYSTEM DISORDERS","NERVOUS SYSTEM DISORDERS",null,"SEVERE","N","N","N","N","N","Y","N","N","NONE","","RECOVERED/RESOLVED",2.0,"Y","","Y","Y","","","","",""],["CDISCPILOT01","704","01-704-1009","Xanomeline Low Dose",54,83,">80",3,"WHITE",1,"M","Y","2013-08-27","2013-09-25","2013-09-17","",22.0,null,null,null,"","DIZZINESS","DIZZINESS",null,"DIZZINESS",null,"HLT_0619",null,"HLGT_0751",null,"NERVOUS SYSTEM DISORDERS","NERVOUS SYSTEM DISORDERS",null,"MILD","N","N","N","N","N","N","N","N","REMOTE","","NOT RECOVERED/NOT RESOLVED",5.0,"Y","","Y","Y","","","","",""],["CDISCPILOT01","704","01-704-1009","Xanomeline Low Dose",54,83,">80",3,"WHITE",1,"M","Y","2013-08-27","2013-09-25","2013-09-05","",10.0,null,null,null,"","FATIGUE","FATIGUE",null,"FATIGUE",null,"HLT_0043",null,"HLGT_0181",null,"GENERAL DISORDERS AND ADMINISTRATION SITE CONDITIONS","GENERAL DISORDERS AND ADMINISTRATION SITE CONDITIONS",null,"MILD","N","N","N","N","N","N","N","N","REMOTE","","NOT RECOVERED/NOT RESOLVED",1.0,"Y","Y","Y","Y","","","","",""],["CDISCPILOT01","704","01-704-1009","Xanomeline Low Dose",54,83,">80",3,"WHITE",1,"M","Y","2013-08-27","2013-09-25","2013-09-05","",10.0,"2013-09-27",32.0,23.0,"DAYS","MALAISE","MALAISE",null,"MALAISE",null,"HLT_0456",null,"HLGT_0178",null,"GENERAL DISORDERS AND ADMINISTRATION SITE CONDITIONS","GENERAL DISORDERS AND ADMINISTRATION SITE CONDITIONS",null,"MILD","N","N","N","N","N","N","N","N","POSSIBLE","","NOT RECOVERED/NOT RESOLVED",2.0,"Y","","","Y","","","","",""],["CDISCPILOT01","704","01-704-1009","Xanomeline Low Dose",54,83,">80",3,"WHITE",1,"M","Y","2013-08-27","2013-09-25","2013-09-05","",10.0,"2013-09-27",32.0,23.0,"DAYS","MALAISE","MALAISE",null,"MALAISE",null,"HLT_0456",null,"HLGT_0178",null,"GENERAL DISORDERS AND ADMINISTRATION SITE CONDITIONS","GENERAL DISORDERS AND ADMINISTRATION SITE CONDITIONS",null,"MILD","N","N","N","N","N","N","N","N","POSSIBLE","","RECOVERED/RESOLVED",4.0,"Y","","","","","","","",""],["CDISCPILOT01","704","01-704-1009","Xanomeline Low Dose",54,83,">80",3,"WHITE",1,"M","Y","2013-08-27","2013-09-25","2013-09-22","",27.0,"2013-09-23",28.0,2.0,"DAYS","NAUSEA","NAUSEA",null,"NAUSEA",null,"HLT_0742",null,"HLGT_0326",null,"GASTROINTESTINAL DISORDERS","GASTROINTESTINAL DISORDERS",null,"MILD","N","N","N","N","N","N","N","N","POSSIBLE","","RECOVERED/RESOLVED",6.0,"Y","","Y","Y","","","","",""],["CDISCPILOT01","704","01-704-1009","Xanomeline Low Dose",54,83,">80",3,"WHITE",1,"M","Y","2013-08-27","2013-09-25","2013-09-14","",19.0,null,null,null,"","RASH","RASH",null,"RASH",null,"HLT_0762",null,"HLGT_0198",null,"SKIN AND SUBCUTANEOUS TISSUE DISORDERS","SKIN AND SUBCUTANEOUS TISSUE DISORDERS",null,"MILD","N","N","N","N","N","N","N","N","POSSIBLE","","NOT RECOVERED/NOT RESOLVED",3.0,"Y","","Y","Y","","","","DERMATOLOGIC EVENTS","Y"],["CDISCPILOT01","704","01-704-1010","Placebo",0,80,"65-80",2,"WHITE",1,"M","Y","2014-02-21","2014-07-08","2014-07-06","",136.0,null,null,null,"","ARTHRALGIA","KNEE PAIN",null,"ARTHRALGIA",null,"HLT_0375",null,"HLGT_0610",null,"MUSCULOSKELETAL AND CONNECTIVE TISSUE DISORDERS","MUSCULOSKELETAL AND CONNECTIVE TISSUE DISORDERS",null,"MILD","N","N","N","N","N","N","N","N","NONE","","NOT RECOVERED/NOT RESOLVED",6.0,"Y","","Y","Y","","","","",""],["CDISCPILOT01","704","01-704-1010","Placebo",0,80,"65-80",2,"WHITE",1,"M","Y","2014-02-21","2014-07-08","2014-07-06","",136.0,null,null,null,"","CONTUSION","BRUISE OF HEAD",null,"CONTUSION",null,"HLT_0713",null,"HLGT_0381",null,"INJURY, POISONING AND PROCEDURAL COMPLICATIONS","INJURY, POISONING AND PROCEDURAL COMPLICATIONS",null,"MILD","N","N","N","N","N","N","N","N","NONE","","NOT RECOVERED/NOT RESOLVED",7.0,"Y","","","Y","","","","",""],["CDISCPILOT01","704","01-704-1010","Placebo",0,80,"65-80",2,"WHITE",1,"M","Y","2014-02-21","2014-07-08","2014-02-27","",7.0,"2014-03-06",14.0,8.0,"DAYS","CYSTITIS","BLADDER INFECTION",null,"CYSTITIS",null,"HLT_0739",null,"HLGT_0129",null,"INFECTIONS AND INFESTATIONS","INFECTIONS AND INFESTATIONS",null,"MILD","N","N","N","N","N","N","N","N","NONE","","RECOVERED/RESOLVED",1.0,"Y","Y","Y","Y","","","","",""],["CDISCPILOT01","704","01-704-1010","Placebo",0,80,"65-80",2,"WHITE",1,"M","Y","2014-02-21","2014-07-08","2014-07-05","",135.0,"2014-07-06",136.0,2.0,"DAYS","DIARRHOEA","DIARRHEA",null,"DIARRHOEA",null,"HLT_0148",null,"HLGT_0588",null,"GASTROINTESTINAL DISORDERS","GASTROINTESTINAL DISORDERS",null,"MILD","N","N","N","N","N","N","N","N","NONE","","RECOVERED/RESOLVED",3.0,"Y","","","Y","","","","",""],["CDISCPILOT01","704","01-704-1010","Placebo",0,80,"65-80",2,"WHITE",1,"M","Y","2014-02-21","2014-07-08","2014-07-06","",136.0,null,null,null,"","EXCORIATION","ABRASION NOS",null,"EXCORIATION",null,"HLT_0738",null,"HLGT_0511",null,"INJURY, POISONING AND PROCEDURAL COMPLICATIONS","INJURY, POISONING AND PROCEDURAL COMPLICATIONS",null,"MILD","N","N","N","N","N","N","N","N","NONE","","NOT RECOVERED/NOT RESOLVED",4.0,"Y","","Y","Y","","","","",""],["CDISCPILOT01","704","01-704-1010","Placebo",0,80,"65-80",2,"WHITE",1,"M","Y","2014-02-21","2014-07-08","2014-07-06","",136.0,null,null,null,"","SKIN LACERATION","SKIN TEAR",null,"SKIN LACERATION",null,"HLT_0075",null,"HLGT_0118",null,"INJURY, POISONING AND PROCEDURAL COMPLICATIONS","INJURY, POISONING AND PROCEDURAL COMPLICATIONS",null,"MILD","N","N","N","N","N","N","N","N","NONE","","NOT RECOVERED/NOT RESOLVED",5.0,"Y","","","Y","","","","",""],["CDISCPILOT01","704","01-704-1010","Placebo",0,80,"65-80",2,"WHITE",1,"M","Y","2014-02-21","2014-07-08","2014-07-05","",135.0,"2014-07-06",136.0,2.0,"DAYS","VOMITING","VOMITING",null,"VOMITING",null,"HLT_0016",null,"HLGT_0350",null,"GASTROINTESTINAL DISORDERS","GASTROINTESTINAL DISORDERS",null,"MILD","N","N","N","N","N","N","N","N","NONE","","RECOVERED/RESOLVED",2.0,"Y","","Y","Y","","","","",""],["CDISCPILOT01","704","01-704-1017","Xanomeline High Dose",81,77,"65-80",2,"WHITE",1,"M","Y","2013-10-06","2013-11-18","2013-11-01","",27.0,null,null,null,"","CARDIAC DISORDER","CARDIAC DISORDER",null,"CARDIAC DISORDER",null,"HLT_0507",null,"HLGT_0126",null,"CARDIAC DISORDERS","CARDIAC DISORDERS",null,"MILD","N","N","N","N","N","N","N","N","NONE","","NOT RECOVERED/NOT RESOLVED",4.0,"Y","","","Y","","","","",""],["CDISCPILOT01","704","01-704-1017","Xanomeline High Dose",81,77,"65-80",2,"WHITE",1,"M","Y","2013-10-06","2013-11-18","2013-11-01","",27.0,"2013-11-08",34.0,8.0,"DAYS","INFLUENZA","FLU",null,"INFLUENZA",null,"HLT_0125",null,"HLGT_0081",null,"INFECTIONS AND INFESTATIONS","INFECTIONS AND INFESTATIONS",null,"MILD","N","N","N","N","N","N","N","N","NONE","","RECOVERED/RESOLVED",3.0,"Y","","Y","Y","","","","",""],["CDISCPILOT01","704","01-704-1017","Xanomeline High Dose",81,77,"65-80",2,"WHITE",1,"M","Y","2013-10-06","2013-11-18","2013-10-19","",14.0,null,null,null,"","MYOCARDIAL INFARCTION","MYOCARDIAL INFARCTION",null,"MYOCARDIAL INFARCTION",null,"HLT_0649",null,"HLGT_0688",null,"CARDIAC DISORDERS","CARDIAC DISORDERS",null,"MILD","N","N","N","N","N","N","N","N","NONE","","NOT RECOVERED/NOT RESOLVED",1.0,"Y","Y","Y","Y","","","","",""],["CDISCPILOT01","704","01-704-1017","Xanomeline High Dose",81,77,"65-80",2,"WHITE",1,"M","Y","2013-10-06","2013-11-18","2013-11-05","",31.0,"2013-11-22",48.0,18.0,"DAYS","PRURITUS","ITCHING",null,"PRURITUS",null,"HLT_0778",null,"HLGT_0695",null,"SKIN AND SUBCUTANEOUS TISSUE DISORDERS","SKIN AND SUBCUTANEOUS TISSUE DISORDERS",null,"MILD","N","N","N","N","N","N","N","N","PROBABLE","","NOT RECOVERED/NOT RESOLVED",6.0,"Y","","","Y","","","","DERMATOLOGIC EVENTS",""],["CDISCPILOT01","704","01-704-1017","Xanomeline High Dose",81,77,"65-80",2,"WHITE",1,"M","Y","2013-10-06","2013-11-18","2013-11-05","",31.0,"2013-11-22",48.0,18.0,"DAYS","PRURITUS","ITCHING",null,"PRURITUS",null,"HLT_0778",null,"HLGT_0695",null,"SKIN AND SUBCUTANEOUS TISSUE DISORDERS","SKIN AND SUBCUTANEOUS TISSUE DISORDERS",null,"MILD","N","N","N","N","N","N","N","N","PROBABLE","","RECOVERED/RESOLVED",8.0,"Y","","","","","","","DERMATOLOGIC EVENTS",""],["CDISCPILOT01","704","01-704-1017","Xanomeline High Dose",81,77,"65-80",2,"WHITE",1,"M","Y","2013-10-06","2013-11-18","2013-11-05","",31.0,"2013-11-22",48.0,18.0,"DAYS","RASH","RASH",null,"RASH",null,"HLT_0762",null,"HLGT_0198",null,"SKIN AND SUBCUTANEOUS TISSUE DISORDERS","SKIN AND SUBCUTANEOUS TISSUE DISORDERS",null,"MILD","N","N","N","N","N","N","N","N","PROBABLE","","NOT RECOVERED/NOT RESOLVED",5.0,"Y","","Y","Y","","","","DERMATOLOGIC EVENTS","Y"],["CDISCPILOT01","704","01-704-1017","Xanomeline High Dose",81,77,"65-80",2,"WHITE",1,"M","Y","2013-10-06","2013-11-18","2013-11-05","",31.0,"2013-11-22",48.0,18.0,"DAYS","RASH","RASH",null,"RASH",null,"HLT_0762",null,"HLGT_0198",null,"SKIN AND SUBCUTANEOUS TISSUE DISORDERS","SKIN AND SUBCUTANEOUS TISSUE DISORDERS",null,"MILD","N","N","N","N","N","N","N","N","PROBABLE","","RECOVERED/RESOLVED",7.0,"Y","","","","","","","DERMATOLOGIC EVENTS",""],["CDISCPILOT01","704","01-704-1017","Xanomeline High Dose",81,77,"65-80",2,"WHITE",1,"M","Y","2013-10-06","2013-11-18","2013-10-19","",14.0,null,null,null,"","VENTRICULAR SEPTAL DEFECT","VENTRICULAR SEPTAL DEFECT",null,"VENTRICULAR SEPTAL DEFECT",null,"HLT_0589",null,"HLGT_0747",null,"CONGENITAL, FAMILIAL AND GENETIC DISORDERS","CONGENITAL, FAMILIAL AND GENETIC DISORDERS",null,"MILD","N","N","N","N","N","N","N","N","NONE","","NOT RECOVERED/NOT RESOLVED",2.0,"Y","","Y","Y","","","","",""],["CDISCPILOT01","704","01-704-1025","Xanomeline Low Dose",54,81,">80",3,"WHITE",1,"F","Y","2013-09-27","2013-10-24","2013-10-11","",15.0,"2013-10-25",29.0,15.0,"DAYS","ELECTROCARDIOGRAM ST SEGMENT DEPRESSION","ST SEGMENT DEPRESSED",null,"ELECTROCARDIOGRAM ST SEGMENT DEPRESSION",null,"HLT_0610",null,"HLGT_0220",null,"INVESTIGATIONS","INVESTIGATIONS",null,"MILD","N","N","N","N","N","N","N","N","POSSIBLE","","NOT RECOVERED/NOT RESOLVED",3.0,"Y","","Y","Y","","","","",""],["CDISCPILOT01","704","01-704-1025","Xanomeline Low Dose",54,81,">80",3,"WHITE",1,"F","Y","2013-09-27","2013-10-24","2013-10-11","",15.0,"2013-10-25",29.0,15.0,"DAYS","ELECTROCARDIOGRAM ST SEGMENT DEPRESSION","ST SEGMENT DEPRESSED",null,"ELECTROCARDIOGRAM ST SEGMENT DEPRESSION",null,"HLT_0610",null,"HLGT_0220",null,"INVESTIGATIONS","INVESTIGATIONS",null,"MILD","N","N","N","N","N","N","N","N","POSSIBLE","","RECOVERED/RESOLVED",5.0,"Y","","","","","","","",""],["CDISCPILOT01","704","01-704-1025","Xanomeline Low Dose",54,81,">80",3,"WHITE",1,"F","Y","2013-09-27","2013-10-24","2013-09-28","",2.0,"2013-09-30",4.0,3.0,"DAYS","PALPITATIONS","PALPITATIONS",null,"PALPITATIONS",null,"HLT_0493",null,"HLGT_0593",null,"CARDIAC DISORDERS","CARDIAC DISORDERS",null,"MODERATE","N","N","N","N","N","N","N","N","REMOTE","","RECOVERED/RESOLVED",2.0,"Y","","Y","Y","","","","",""],["CDISCPILOT01","704","01-704-1025","Xanomeline Low Dose",54,81,">80",3,"WHITE",1,"F","Y","2013-09-27","2013-10-24","2013-09-28","",2.0,"2013-09-30",4.0,3.0,"DAYS","VERTIGO","VERTIGO",null,"VERTIGO",null,"HLT_0255",null,"HLGT_0147",null,"EAR AND LABYRINTH DISORDERS","EAR AND LABYRINTH DISORDERS",null,"MODERATE","N","N","N","N","N","N","N","N","POSSIBLE","","RECOVERED/RESOLVED",1.0,"Y","Y","Y","Y","","","","",""],["CDISCPILOT01","704","01-704-1025","Xanomeline Low Dose",54,81,">80",3,"WHITE",1,"F","Y","2013-09-27","2013-10-24","2013-10-25","",29.0,"2013-11-29",64.0,36.0,"DAYS","WOLFF-PARKINSON-WHITE SYNDROME","WOLFF-PARKINSON-WHITE SYNDROME",null,"WOLFF-PARKINSON-WHITE SYNDROME",null,"HLT_0612",null,"HLGT_0218",null,"CARDIAC DISORDERS","CARDIAC DISORDERS",null,"MILD","N","N","N","N","N","N","N","N","POSSIBLE","","NOT RECOVERED/NOT RESOLVED",4.0,"Y","","","Y","","","","",""],["CDISCPILOT01","704","01-704-1025","Xanomeline Low Dose",54,81,">80",3,"WHITE",1,"F","Y","2013-09-27","2013-10-24","2013-10-25","",29.0,"2013-11-29",64.0,36.0,"DAYS","WOLFF-PARKINSON-WHITE SYNDROME","WOLFF-PARKINSON-WHITE SYNDROME",null,"WOLFF-PARKINSON-WHITE SYNDROME",null,"HLT_0612",null,"HLGT_0218",null,"CARDIAC DISORDERS","CARDIAC DISORDERS",null,"MILD","N","N","N","N","N","N","N","N","POSSIBLE","","RECOVERED/RESOLVED",6.0,"Y","","","","","","","",""],["CDISCPILOT01","704","01-704-1065","Xanomeline High Dose",81,75,"65-80",2,"WHITE",1,"M","Y","2013-10-24","2013-12-22","2013-10-26","",3.0,null,null,null,"","ABDOMINAL DISCOMFORT","ABDOMINAL DISCOMFORT",null,"ABDOMINAL DISCOMFORT",null,"HLT_0012",null,"HLGT_0332",null,"GASTROINTESTINAL DISORDERS","GASTROINTESTINAL DISORDERS",null,"MILD","N","N","N","N","N","N","N","N","REMOTE","","NOT RECOVERED/NOT RESOLVED",1.0,"Y","Y","Y","Y","","","","",""],["CDISCPILOT01","704","01-704-1065","Xanomeline High Dose",81,75,"65-80",2,"WHITE",1,"M","Y","2013-10-24","2013-12-22","2013-11-09","",17.0,null,null,null,"","APPLICATION SITE IRRITATION","APPLICATION SITE BURNING",null,"APPLICATION SITE IRRITATION",null,"HLT_0061",null,"HLGT_0346",null,"GENERAL DISORDERS AND ADMINISTRATION SITE CONDITIONS","GENERAL DISORDERS AND ADMINISTRATION SITE CONDITIONS",null,"MILD","N","N","N","N","N","N","N","N","PROBABLE","","NOT RECOVERED/NOT RESOLVED",4.0,"Y","","","Y","","","","DERMATOLOGIC EVENTS",""],["CDISCPILOT01","704","01-704-1065","Xanomeline High Dose",81,75,"65-80",2,"WHITE",1,"M","Y","2013-10-24","2013-12-22","2013-10-27","",4.0,null,null,null,"","APPLICATION SITE PRURITUS","APPLICATION SITE ITCHING",null,"APPLICATION SITE PRURITUS",null,"HLT_0317",null,"HLGT_0338",null,"GENERAL DISORDERS AND ADMINISTRATION SITE CONDITIONS","GENERAL DISORDERS AND ADMINISTRATION SITE CONDITIONS",null,"MODERATE","N","N","N","N","N","N","N","N","PROBABLE","","NOT RECOVERED/NOT RESOLVED",3.0,"Y","","Y","Y","","","","DERMATOLOGIC EVENTS",""],["CDISCPILOT01","704","01-704-1065","Xanomeline High Dose",81,75,"65-80",2,"WHITE",1,"M","Y","2013-10-24","2013-12-22","2013-11-17","",25.0,"2013-11-17",25.0,1.0,"DAYS","CHILLS","CHILLS",null,"CHILLS",null,"HLT_0586",null,"HLGT_0161",null,"GENERAL DISORDERS AND ADMINISTRATION SITE CONDITIONS","GENERAL DISORDERS AND ADMINISTRATION SITE CONDITIONS",null,"MILD","N","N","N","N","N","N","N","N","REMOTE","","RECOVERED/RESOLVED",7.0,"Y","","","Y","","","","",""],["CDISCPILOT01","704","01-704-1065","Xanomeline High Dose",81,75,"65-80",2,"WHITE",1,"M","Y","2013-10-24","2013-12-22","2013-12-15","",53.0,"2013-12-15",53.0,1.0,"DAYS","DIARRHOEA","DIARRHEA",null,"DIARRHOEA",null,"HLT_0148",null,"HLGT_0588",null,"GASTROINTESTINAL DISORDERS","GASTROINTESTINAL DISORDERS",null,"MILD","N","N","N","N","N","N","N","N","REMOTE","","RECOVERED/RESOLVED",9.0,"Y","","","Y","","","","",""],["CDISCPILOT01","704","01-704-1065","Xanomeline High Dose",81,75,"65-80",2,"WHITE",1,"M","Y","2013-10-24","2013-12-22","2013-11-17","",25.0,"2013-11-17",25.0,1.0,"DAYS","DIZZINESS","DIZZINESS",null,"DIZZINESS",null,"HLT_0619",null,"HLGT_0751",null,"NERVOUS SYSTEM DISORDERS","NERVOUS SYSTEM DISORDERS",null,"MILD","N","N","N","N","N","N","N","N","REMOTE","","RECOVERED/RESOLVED",8.0,"Y","","Y","Y","","","","",""],["CDISCPILOT01","704","01-704-1065","Xanomeline High Dose",81,75,"65-80",2,"WHITE",1,"M","Y","2013-10-24","2013-12-22","2013-11-09","",17.0,null,null,null,"","HYPERHIDROSIS","PERSPIRATION EXCESSIVE",null,"HYPERHIDROSIS",null,"HLT_0587",null,"HLGT_0005",null,"SKIN AND SUBCUTANEOUS TISSUE DISORDERS","SKIN AND SUBCUTANEOUS TISSUE DISORDERS",null,"MILD","N","N","N","N","N","N","N","N","POSSIBLE","","NOT RECOVERED/NOT RESOLVED",6.0,"Y","","","Y","","","","",""],["CDISCPILOT01","704","01-704-1065","Xanomeline High Dose",81,75,"65-80",2,"WHITE",1,"M","Y","2013-10-24","2013-12-22","2013-11-09","",17.0,null,null,null,"","MALAISE","MALAISE",null,"MALAISE",null,"HLT_0456",null,"HLGT_0178",null,"GENERAL DISORDERS AND ADMINISTRATION SITE CONDITIONS","GENERAL DISORDERS AND ADMINISTRATION SITE CONDITIONS",null,"MILD","N","N","N","N","N","N","N","N","POSSIBLE","","NOT RECOVERED/NOT RESOLVED",5.0,"Y","","","Y","","","","",""],["CDISCPILOT01","704","01-704-1065","Xanomeline High Dose",81,75,"65-80",2,"WHITE",1,"M","Y","2013-10-24","2013-12-22","2013-10-27","",4.0,null,null,null,"","RASH","RASH",null,"RASH",null,"HLT_0762",null,"HLGT_0198",null,"SKIN AND SUBCUTANEOUS TISSUE DISORDERS","SKIN AND SUBCUTANEOUS TISSUE DISORDERS",null,"MILD","N","N","N","N","N","N","N","N","PROBABLE","","NOT RECOVERED/NOT RESOLVED",2.0,"Y","","Y","Y","","","","DERMATOLOGIC EVENTS","Y"],["CDISCPILOT01","704","01-704-1065","Xanomeline High Dose",81,75,"65-80",2,"WHITE",1,"M","Y","2013-10-24","2013-12-22","2013-12-24","",62.0,null,null,null,"","SINUS BRADYCARDIA","BRADYCARDIA SINUS",null,"SINUS BRADYCARDIA",null,"HLT_0644",null,"HLGT_0500",null,"CARDIAC DISORDERS","CARDIAC DISORDERS",null,"MILD","N","N","N","N","N","N","N","N","NONE","","NOT RECOVERED/NOT RESOLVED",10.0,"Y","","Y","Y","","","","",""],["CDISCPILOT01","704","01-704-1074","Xanomeline High Dose",81,80,"65-80",2,"WHITE",1,"F","Y","2014-01-22","2014-03-20","2014-02-09","",19.0,null,null,null,"","ERYTHEMA","SKIN RED",null,"ERYTHEMA",null,"HLT_0284",null,"HLGT_0192",null,"SKIN AND SUBCUTANEOUS TISSUE DISORDERS","SKIN AND SUBCUTANEOUS TISSUE DISORDERS",null,"MILD","N","N","N","N","N","N","N","N","PROBABLE","","NOT RECOVERED/NOT RESOLVED",2.0,"Y","","","Y","","","","DERMATOLOGIC EVENTS",""],["CDISCPILOT01","704","01-704-1074","Xanomeline High Dose",81,80,"65-80",2,"WHITE",1,"F","Y","2014-01-22","2014-03-20","2014-01-22","",1.0,null,null,null,"","PRURITUS","ITCHING",null,"PRURITUS",null,"HLT_0778",null,"HLGT_0695",null,"SKIN AND SUBCUTANEOUS TISSUE DISORDERS","SKIN AND SUBCUTANEOUS TISSUE DISORDERS",null,"MILD","N","N","N","N","N","N","N","N","PROBABLE","","NOT RECOVERED/NOT RESOLVED",1.0,"Y","Y","Y","Y","","","","DERMATOLOGIC EVENTS","Y"],["CDISCPILOT01","704","01-704-1093","Xanomeline High Dose",81,79,"65-80",2,"WHITE",1,"M","Y","2013-03-15","2013-06-17","2013-03-30","",16.0,"2013-04-13",30.0,15.0,"DAYS","BLOOD GLUCOSE INCREASED","GLUCOSE INCREASED",null,"BLOOD GLUCOSE INCREASED",null,"HLT_0450",null,"HLGT_0188",null,"INVESTIGATIONS","INVESTIGATIONS",null,"MILD","N","N","N","N","N","N","N","N","NONE","","NOT RECOVERED/NOT RESOLVED",1.0,"Y","Y","Y","Y","","","","",""],["CDISCPILOT01","704","01-704-1093","Xanomeline High Dose",81,79,"65-80",2,"WHITE",1,"M","Y","2013-03-15","2013-06-17","2013-03-30","",16.0,"2013-04-13",30.0,15.0,"DAYS","BLOOD GLUCOSE INCREASED","GLUCOSE INCREASED",null,"BLOOD GLUCOSE INCREASED",null,"HLT_0450",null,"HLGT_0188",null,"INVESTIGATIONS","INVESTIGATIONS",null,"MILD","N","N","N","N","N","N","N","N","NONE","","RECOVERED/RESOLVED",2.0,"Y","","","","","","","",""],["CDISCPILOT01","704","01-704-1093","Xanomeline High Dose",81,79,"65-80",2,"WHITE",1,"M","Y","2013-03-15","2013-06-17","2013-05-04","",51.0,null,null,null,"","PRURITUS","ITCHING",null,"PRURITUS",null,"HLT_0778",null,"HLGT_0695",null,"SKIN AND SUBCUTANEOUS TISSUE DISORDERS","SKIN AND SUBCUTANEOUS TISSUE DISORDERS",null,"MILD","N","N","N","N","N","N","N","N","PROBABLE","","NOT RECOVERED/NOT RESOLVED",4.0,"Y","","","Y","","","","DERMATOLOGIC EVENTS",""],["CDISCPILOT01","704","01-704-1093","Xanomeline High Dose",81,79,"65-80",2,"WHITE",1,"M","Y","2013-03-15","2013-06-17","2013-05-04","",51.0,null,null,null,"","RASH","RASH",null,"RASH",null,"HLT_0762",null,"HLGT_0198",null,"SKIN AND SUBCUTANEOUS TISSUE DISORDERS","SKIN AND SUBCUTANEOUS TISSUE DISORDERS",null,"MILD","N","N","N","N","N","N","N","N","PROBABLE","","NOT RECOVERED/NOT RESOLVED",3.0,"Y","","Y","Y","","","","DERMATOLOGIC EVENTS","Y"],["CDISCPILOT01","704","01-704-1114","Xanomeline Low Dose",54,77,"65-80",2,"WHITE",1,"M","Y","2013-01-23","2013-07-07","2013-02-21","",30.0,"2013-02-23",32.0,3.0,"DAYS","ERYTHEMA","REDNESS",null,"ERYTHEMA",null,"HLT_0284",null,"HLGT_0192",null,"SKIN AND SUBCUTANEOUS TISSUE DISORDERS","SKIN AND SUBCUTANEOUS TISSUE DISORDERS",null,"MILD","N","N","N","N","N","N","N","N","PROBABLE","","RECOVERED/RESOLVED",1.0,"Y","Y","Y","Y","","","","DERMATOLOGIC EVENTS","Y"],["CDISCPILOT01","704","01-704-1114","Xanomeline Low Dose",54,77,"65-80",2,"WHITE",1,"M","Y","2013-01-23","2013-07-07","2013-06-07","",136.0,"2013-06-13",142.0,7.0,"DAYS","INFLUENZA","FLU",null,"INFLUENZA",null,"HLT_0125",null,"HLGT_0081",null,"INFECTIONS AND INFESTATIONS","INFECTIONS AND INFESTATIONS",null,"MILD","N","N","N","N","N","N","N","N","NONE","","RECOVERED/RESOLVED",5.0,"Y","","Y","Y","","","","",""],["CDISCPILOT01","704","01-704-1114","Xanomeline Low Dose",54,77,"65-80",2,"WHITE",1,"M","Y","2013-01-23","2013-07-07","2013-02-23","",32.0,null,null,null,"","OEDEMA","EDEMA",null,"OEDEMA",null,"HLT_0656",null,"HLGT_0036",null,"GENERAL DISORDERS AND ADMINISTRATION SITE CONDITIONS","GENERAL DISORDERS AND ADMINISTRATION SITE CONDITIONS",null,"MILD","N","N","N","N","N","N","N","N","PROBABLE","","NOT RECOVERED/NOT RESOLVED",2.0,"Y","","Y","Y","","","","",""],["CDISCPILOT01","704","01-704-1114","Xanomeline Low Dose",54,77,"65-80",2,"WHITE",1,"M","Y","2013-01-23","2013-07-07","2013-03-23","",60.0,null,null,null,"","PRURITUS","ITCHING",null,"PRURITUS",null,"HLT_0778",null,"HLGT_0695",null,"SKIN AND SUBCUTANEOUS TISSUE DISORDERS","SKIN AND SUBCUTANEOUS TISSUE DISORDERS",null,"MILD","N","N","N","N","N","N","N","N","PROBABLE","","NOT RECOVERED/NOT RESOLVED",4.0,"Y","","","Y","","","","DERMATOLOGIC EVENTS",""],["CDISCPILOT01","704","01-704-1114","Xanomeline Low Dose",54,77,"65-80",2,"WHITE",1,"M","Y","2013-01-23","2013-07-07","2013-03-23","",60.0,null,null,null,"","RASH","RASH",null,"RASH",null,"HLT_0762",null,"HLGT_0198",null,"SKIN AND SUBCUTANEOUS TISSUE DISORDERS","SKIN AND SUBCUTANEOUS TISSUE DISORDERS",null,"MILD","N","N","N","N","N","N","N","N","PROBABLE","","NOT RECOVERED/NOT RESOLVED",3.0,"Y","","","Y","","","","DERMATOLOGIC EVENTS",""],["CDISCPILOT01","704","01-704-1120","Xanomeline Low Dose",54,71,"65-80",2,"WHITE",1,"F","Y","2013-12-02","2014-02-01","2013-12-28","",27.0,"2014-02-03",64.0,38.0,"DAYS","NASOPHARYNGITIS","COLD",null,"NASOPHARYNGITIS",null,"HLT_0036",null,"HLGT_0709",null,"INFECTIONS AND INFESTATIONS","INFECTIONS AND INFESTATIONS",null,"MILD","N","N","N","N","N","N","N","N","NONE","","NOT RECOVERED/NOT RESOLVED",2.0,"Y","","Y","Y","","","","",""],["CDISCPILOT01","704","01-704-1120","Xanomeline Low Dose",54,71,"65-80",2,"WHITE",1,"F","Y","2013-12-02","2014-02-01","2013-12-28","",27.0,"2014-02-03",64.0,38.0,"DAYS","NASOPHARYNGITIS","COLD",null,"NASOPHARYNGITIS",null,"HLT_0036",null,"HLGT_0709",null,"INFECTIONS AND INFESTATIONS","INFECTIONS AND INFESTATIONS",null,"MILD","N","N","N","N","N","N","N","N","NONE","","RECOVERED/RESOLVED",6.0,"Y","","","","","","","",""],["CDISCPILOT01","704","01-704-1120","Xanomeline Low Dose",54,71,"65-80",2,"WHITE",1,"F","Y","2013-12-02","2014-02-01","2014-01-27","",57.0,null,null,null,"","PRURITUS","ITCHING",null,"PRURITUS",null,"HLT_0778",null,"HLGT_0695",null,"SKIN AND SUBCUTANEOUS TISSUE DISORDERS","SKIN AND SUBCUTANEOUS TISSUE DISORDERS",null,"MILD","N","N","N","N","N","N","N","N","PROBABLE","","NOT RECOVERED/NOT RESOLVED",4.0,"Y","","","Y","","","","DERMATOLOGIC EVENTS",""],["CDISCPILOT01","704","01-704-1120","Xanomeline Low Dose",54,71,"65-80",2,"WHITE",1,"F","Y","2013-12-02","2014-02-01","2014-01-27","",57.0,null,null,null,"","PRURITUS","ITCHING",null,"PRURITUS",null,"HLT_0778",null,"HLGT_0695",null,"SKIN AND SUBCUTANEOUS TISSUE DISORDERS","SKIN AND SUBCUTANEOUS TISSUE DISORDERS",null,"MODERATE","N","N","N","N","N","N","N","N","PROBABLE","","NOT RECOVERED/NOT RESOLVED",5.0,"Y","","","","","","","DERMATOLOGIC EVENTS",""],["CDISCPILOT01","704","01-704-1120","Xanomeline Low Dose",54,71,"65-80",2,"WHITE",1,"F","Y","2013-12-02","2014-02-01","2013-12-23","",22.0,null,null,null,"","RASH","RASH",null,"RASH",null,"HLT_0762",null,"HLGT_0198",null,"SKIN AND SUBCUTANEOUS TISSUE DISORDERS","SKIN AND SUBCUTANEOUS TISSUE DISORDERS",null,"MILD","N","N","N","N","N","N","N","N","PROBABLE","","NOT RECOVERED/NOT RESOLVED",1.0,"Y","Y","Y","Y","","","","DERMATOLOGIC EVENTS","Y"],["CDISCPILOT01","704","01-704-1120","Xanomeline Low Dose",54,71,"65-80",2,"WHITE",1,"F","Y","2013-12-02","2014-02-01","2013-12-23","",22.0,null,null,null,"","RASH","RASH",null,"RASH",null,"HLT_0762",null,"HLGT_0198",null,"SKIN AND SUBCUTANEOUS TISSUE DISORDERS","SKIN AND SUBCUTANEOUS TISSUE DISORDERS",null,"MODERATE","N","N","N","N","N","N","N","N","PROBABLE","","NOT RECOVERED/NOT RESOLVED",3.0,"Y","","","","","","","DERMATOLOGIC EVENTS",""],["CDISCPILOT01","704","01-704-1135","Xanomeline Low Dose",54,74,"65-80",2,"WHITE",1,"F","Y","2013-10-31","2014-05-16","2013-12-08","",39.0,null,null,null,"","RASH","RASH",null,"RASH",null,"HLT_0762",null,"HLGT_0198",null,"SKIN AND SUBCUTANEOUS TISSUE DISORDERS","SKIN AND SUBCUTANEOUS TISSUE DISORDERS",null,"MILD","N","N","N","N","N","N","N","N","","","NOT RECOVERED/NOT RESOLVED",1.0,"Y","Y","Y","Y","","","","DERMATOLOGIC EVENTS","Y"],["CDISCPILOT01","704","01-704-1135","Xanomeline Low Dose",54,74,"65-80",2,"WHITE",1,"F","Y","2013-10-31","2014-05-16","2013-12-08","",39.0,null,null,null,"","RASH","RASH",null,"RASH",null,"HLT_0762",null,"HLGT_0198",null,"SKIN AND SUBCUTANEOUS TISSUE DISORDERS","SKIN AND SUBCUTANEOUS TISSUE DISORDERS",null,"SEVERE","N","N","N","N","N","N","N","N","","","NOT RECOVERED/NOT RESOLVED",2.0,"Y","","","","","","","DERMATOLOGIC EVENTS",""],["CDISCPILOT01","704","01-704-1164","Placebo",0,67,"65-80",2,"WHITE",1,"F","Y","2012-09-19","2013-04-04","2012-09-27","",9.0,"2012-10-07",19.0,11.0,"DAYS","INFLUENZA","FLU",null,"INFLUENZA",null,"HLT_0125",null,"HLGT_0081",null,"INFECTIONS AND INFESTATIONS","INFECTIONS AND INFESTATIONS",null,"MILD","N","N","N","N","N","N","N","N","NONE","","NOT RECOVERED/NOT RESOLVED",1.0,"Y","Y","Y","Y","","","","",""],["CDISCPILOT01","704","01-704-1164","Placebo",0,67,"65-80",2,"WHITE",1,"F","Y","2012-09-19","2013-04-04","2012-09-27","",9.0,"2012-10-07",19.0,11.0,"DAYS","INFLUENZA","FLU",null,"INFLUENZA",null,"HLT_0125",null,"HLGT_0081",null,"INFECTIONS AND INFESTATIONS","INFECTIONS AND INFESTATIONS",null,"MILD","N","N","N","N","N","N","N","N","NONE","","RECOVERED/RESOLVED",2.0,"Y","","","","","","","",""],["CDISCPILOT01","704","01-704-1164","Placebo",0,67,"65-80",2,"WHITE",1,"F","Y","2012-09-19","2013-04-04","2013-02-04","",139.0,"2013-02-13",148.0,10.0,"DAYS","OEDEMA PERIPHERAL","SWELLING OF FEET",null,"OEDEMA PERIPHERAL",null,"HLT_0661",null,"HLGT_0137",null,"GENERAL DISORDERS AND ADMINISTRATION SITE CONDITIONS","GENERAL DISORDERS AND ADMINISTRATION SITE CONDITIONS",null,"MILD","N","N","N","N","N","N","N","N","NONE","","RECOVERED/RESOLVED",3.0,"Y","","Y","Y","","","","",""],["CDISCPILOT01","704","01-704-1218","Xanomeline Low Dose",54,81,">80",3,"WHITE",1,"F","Y","2012-11-19","2013-05-27","2012-12-30","",42.0,null,null,null,"","BLOOD GLUCOSE INCREASED","GLUCOSE INCREASED",null,"BLOOD GLUCOSE INCREASED",null,"HLT_0450",null,"HLGT_0188",null,"INVESTIGATIONS","INVESTIGATIONS",null,"MILD","N","N","N","N","N","N","N","N","NONE","","NOT RECOVERED/NOT RESOLVED",1.0,"Y","Y","Y","Y","","","","",""],["CDISCPILOT01","704","01-704-1241","Xanomeline High Dose",81,86,">80",3,"WHITE",1,"M","Y","2013-08-25","2013-10-09","2013-09-28","",35.0,null,null,null,"","DYSPNOEA","RESPIRATION LABORED",null,"DYSPNOEA",null,"HLT_0296",null,"HLGT_0255",null,"RESPIRATORY, THORACIC AND MEDIASTINAL DISORDERS","RESPIRATORY, THORACIC AND MEDIASTINAL DISORDERS",null,"MILD","N","N","N","N","N","N","N","N","NONE","","NOT RECOVERED/NOT RESOLVED",2.0,"Y","Y","Y","Y","","","","",""],["CDISCPILOT01","704","01-704-1241","Xanomeline High Dose",81,86,">80",3,"WHITE",1,"M","Y","2013-08-25","2013-10-09","2013-08-14","",-11.0,null,null,null,"","RASH","RASH",null,"RASH",null,"HLT_0762",null,"HLGT_0198",null,"SKIN AND SUBCUTANEOUS TISSUE DISORDERS","SKIN AND SUBCUTANEOUS TISSUE DISORDERS",null,"MODERATE","N","N","N","N","N","N","N","N","NONE","","NOT RECOVERED/NOT RESOLVED",1.0,"","","","","","","","DERMATOLOGIC EVENTS",""],["CDISCPILOT01","704","01-704-1266","Xanomeline High Dose",81,82,">80",3,"WHITE",1,"M","Y","2013-10-13","2013-12-06","2013-11-08","",27.0,"2013-12-06",55.0,29.0,"DAYS","ATRIAL FIBRILLATION","ATRIAL FIBRILLATION",null,"ATRIAL FIBRILLATION",null,"HLT_0365",null,"HLGT_0012",null,"CARDIAC DISORDERS","CARDIAC DISORDERS",null,"MILD","N","N","N","N","N","N","N","N","NONE","","NOT RECOVERED/NOT RESOLVED",4.0,"Y","","","Y","","","","",""],["CDISCPILOT01","704","01-704-1266","Xanomeline High Dose",81,82,">80",3,"WHITE",1,"M","Y","2013-10-13","2013-12-06","2013-11-08","",27.0,"2013-12-06",55.0,29.0,"DAYS","ATRIAL FIBRILLATION","ATRIAL FIBRILLATION",null,"ATRIAL FIBRILLATION",null,"HLT_0365",null,"HLGT_0012",null,"CARDIAC DISORDERS","CARDIAC DISORDERS",null,"MILD","N","N","N","N","N","N","N","N","NONE","","RECOVERED/RESOLVED",13.0,"Y","","","","","","","",""],["CDISCPILOT01","704","01-704-1266","Xanomeline High Dose",81,82,">80",3,"WHITE",1,"M","Y","2013-10-13","2013-12-06","2013-10-27","",15.0,"2013-11-08",27.0,13.0,"DAYS","ATRIAL FLUTTER","ATRIAL FLUTTER",null,"ATRIAL FLUTTER",null,"HLT_0477",null,"HLGT_0627",null,"CARDIAC DISORDERS","CARDIAC DISORDERS",null,"MILD","N","N","N","N","N","N","N","N","NONE","","NOT RECOVERED/NOT RESOLVED",3.0,"Y","","Y","Y","","","","",""],["CDISCPILOT01","704","01-704-1266","Xanomeline High Dose",81,82,">80",3,"WHITE",1,"M","Y","2013-10-13","2013-12-06","2013-10-27","",15.0,"2013-11-08",27.0,13.0,"DAYS","ATRIAL FLUTTER","ATRIAL FLUTTER",null,"ATRIAL FLUTTER",null,"HLT_0477",null,"HLGT_0627",null,"CARDIAC DISORDERS","CARDIAC DISORDERS",null,"MILD","N","N","N","N","N","N","N","N","NONE","","RECOVERED/RESOLVED",5.0,"Y","","","","","","","",""],["CDISCPILOT01","704","01-704-1266","Xanomeline High Dose",81,82,">80",3,"WHITE",1,"M","Y","2013-10-13","2013-12-06","2013-11-15","",34.0,"2013-12-14",63.0,30.0,"DAYS","BLISTER","BLISTERING",null,"BLISTER",null,"HLT_0752",null,"HLGT_0267",null,"SKIN AND SUBCUTANEOUS TISSUE DISORDERS","SKIN AND SUBCUTANEOUS TISSUE DISORDERS",null,"MILD","N","N","N","N","N","N","N","N","PROBABLE","","NOT RECOVERED/NOT RESOLVED",7.0,"Y","","","Y","","","","DERMATOLOGIC EVENTS",""],["CDISCPILOT01","704","01-704-1266","Xanomeline High Dose",81,82,">80",3,"WHITE",1,"M","Y","2013-10-13","2013-12-06","2013-11-15","",34.0,"2013-12-14",63.0,30.0,"DAYS","BLISTER","BLISTERING",null,"BLISTER",null,"HLT_0752",null,"HLGT_0267",null,"SKIN AND SUBCUTANEOUS TISSUE DISORDERS","SKIN AND SUBCUTANEOUS TISSUE DISORDERS",null,"MILD","N","N","N","N","N","N","N","N","PROBABLE","","RECOVERED/RESOLVED",14.0,"Y","","","","","","","DERMATOLOGIC EVENTS",""],["CDISCPILOT01","704","01-704-1266","Xanomeline High Dose",81,82,">80",3,"WHITE",1,"M","Y","2013-10-13","2013-12-06","2013-10-17","",5.0,"2013-12-23",72.0,68.0,"DAYS","ERYTHEMA","ERYTHEMA",null,"ERYTHEMA",null,"HLT_0284",null,"HLGT_0192",null,"SKIN AND SUBCUTANEOUS TISSUE DISORDERS","SKIN AND SUBCUTANEOUS TISSUE DISORDERS",null,"MILD","N","N","N","N","N","N","N","N","PROBABLE","","NOT RECOVERED/NOT RESOLVED",2.0,"Y","Y","Y","Y","","","","DERMATOLOGIC EVENTS","Y"],["CDISCPILOT01","704","01-704-1266","Xanomeline High Dose",81,82,">80",3,"WHITE",1,"M","Y","2013-10-13","2013-12-06","2013-10-17","",5.0,"2013-12-23",72.0,68.0,"DAYS","ERYTHEMA","ERYTHEMA",null,"ERYTHEMA",null,"HLT_0284",null,"HLGT_0192",null,"SKIN AND SUBCUTANEOUS TISSUE DISORDERS","SKIN AND SUBCUTANEOUS TISSUE DISORDERS",null,"MODERATE","N","N","N","N","N","N","N","N","PROBABLE","","NOT RECOVERED/NOT RESOLVED",9.0,"Y","","","","","","","DERMATOLOGIC EVENTS",""],["CDISCPILOT01","704","01-704-1266","Xanomeline High Dose",81,82,">80",3,"WHITE",1,"M","Y","2013-10-13","2013-12-06","2013-10-17","",5.0,"2013-12-23",72.0,68.0,"DAYS","ERYTHEMA","ERYTHEMA",null,"ERYTHEMA",null,"HLT_0284",null,"HLGT_0192",null,"SKIN AND SUBCUTANEOUS TISSUE DISORDERS","SKIN AND SUBCUTANEOUS TISSUE DISORDERS",null,"MODERATE","N","N","N","N","N","N","N","N","PROBABLE","","RECOVERED/RESOLVED",12.0,"Y","","","","","","","DERMATOLOGIC EVENTS",""],["CDISCPILOT01","704","01-704-1266","Xanomeline High Dose",81,82,">80",3,"WHITE",1,"M","Y","2013-10-13","2013-12-06","2013-12-06","",55.0,"2013-12-23",72.0,18.0,"DAYS","ERYTHEMA","REDNESS",null,"ERYTHEMA",null,"HLT_0284",null,"HLGT_0192",null,"SKIN AND SUBCUTANEOUS TISSUE DISORDERS","SKIN AND SUBCUTANEOUS TISSUE DISORDERS",null,"MILD","N","N","N","N","N","N","N","N","PROBABLE","","NOT RECOVERED/NOT RESOLVED",11.0,"Y","","","","","","","DERMATOLOGIC EVENTS",""],["CDISCPILOT01","704","01-704-1266","Xanomeline High Dose",81,82,">80",3,"WHITE",1,"M","Y","2013-10-13","2013-12-06","2013-12-06","",55.0,"2013-12-23",72.0,18.0,"DAYS","ERYTHEMA","REDNESS",null,"ERYTHEMA",null,"HLT_0284",null,"HLGT_0192",null,"SKIN AND SUBCUTANEOUS TISSUE DISORDERS","SKIN AND SUBCUTANEOUS TISSUE DISORDERS",null,"MILD","N","N","N","N","N","N","N","N","PROBABLE","","RECOVERED/RESOLVED",16.0,"Y","","","","","","","DERMATOLOGIC EVENTS",""],["CDISCPILOT01","704","01-704-1266","Xanomeline High Dose",81,82,">80",3,"WHITE",1,"M","Y","2013-10-13","2013-12-06","2013-11-09","",28.0,"2013-12-04",53.0,26.0,"DAYS","HYPERHIDROSIS","PERSPIRATION EXCESSIVE",null,"HYPERHIDROSIS",null,"HLT_0587",null,"HLGT_0005",null,"SKIN AND SUBCUTANEOUS TISSUE DISORDERS","SKIN AND SUBCUTANEOUS TISSUE DISORDERS",null,"MILD","N","N","N","N","N","N","N","N","POSSIBLE","","NOT RECOVERED/NOT RESOLVED",6.0,"Y","","","Y","","","","",""],["CDISCPILOT01","704","01-704-1266","Xanomeline High Dose",81,82,">80",3,"WHITE",1,"M","Y","2013-10-13","2013-12-06","2013-11-09","",28.0,"2013-12-04",53.0,26.0,"DAYS","HYPERHIDROSIS","PERSPIRATION EXCESSIVE",null,"HYPERHIDROSIS",null,"HLT_0587",null,"HLGT_0005",null,"SKIN AND SUBCUTANEOUS TISSUE DISORDERS","SKIN AND SUBCUTANEOUS TISSUE DISORDERS",null,"MILD","N","N","N","N","N","N","N","N","POSSIBLE","","RECOVERED/RESOLVED",10.0,"Y","","","","","","","",""],["CDISCPILOT01","704","01-704-1266","Xanomeline High Dose",81,82,">80",3,"WHITE",1,"M","Y","2013-10-13","2013-12-06","2013-11-15","",34.0,"2013-12-23",72.0,39.0,"DAYS","PRURITUS","ITCHING",null,"PRURITUS",null,"HLT_0778",null,"HLGT_0695",null,"SKIN AND SUBCUTANEOUS TISSUE DISORDERS","SKIN AND SUBCUTANEOUS TISSUE DISORDERS",null,"MILD","N","N","N","N","N","N","N","N","PROBABLE","","NOT RECOVERED/NOT RESOLVED",8.0,"Y","","","Y","","","","DERMATOLOGIC EVENTS",""],["CDISCPILOT01","704","01-704-1266","Xanomeline High Dose",81,82,">80",3,"WHITE",1,"M","Y","2013-10-13","2013-12-06","2013-11-15","",34.0,"2013-12-23",72.0,39.0,"DAYS","PRURITUS","ITCHING",null,"PRURITUS",null,"HLT_0778",null,"HLGT_0695",null,"SKIN AND SUBCUTANEOUS TISSUE DISORDERS","SKIN AND SUBCUTANEOUS TISSUE DISORDERS",null,"MILD","N","N","N","N","N","N","N","N","PROBABLE","","RECOVERED/RESOLVED",15.0,"Y","","","","","","","DERMATOLOGIC EVENTS",""],["CDISCPILOT01","704","01-704-1266","Xanomeline High Dose",81,82,">80",3,"WHITE",1,"M","Y","2013-10-13","2013-12-06","2013-10-06","",-7.0,null,null,null,"","SEASONAL ALLERGY","HAY FEVER",null,"SEASONAL ALLERGY",null,"HLT_0714",null,"HLGT_0782",null,"IMMUNE SYSTEM DISORDERS","IMMUNE SYSTEM DISORDERS",null,"MILD","N","N","N","N","N","N","N","N","NONE","","NOT RECOVERED/NOT RESOLVED",1.0,"","","","","","","","",""],["CDISCPILOT01","704","01-704-1323","Xanomeline Low Dose",54,68,"65-80",2,"WHITE",1,"F","Y","2013-07-08","2013-08-05","2013-08-04","",28.0,null,null,null,"","OEDEMA","EDEMA",null,"OEDEMA",null,"HLT_0656",null,"HLGT_0036",null,"GENERAL DISORDERS AND ADMINISTRATION SITE CONDITIONS","GENERAL DISORDERS AND ADMINISTRATION SITE CONDITIONS",null,"MILD","N","N","N","N","N","N","N","N","PROBABLE","","NOT RECOVERED/NOT RESOLVED",4.0,"Y","","Y","Y","","","","",""],["CDISCPILOT01","704","01-704-1323","Xanomeline Low Dose",54,68,"65-80",2,"WHITE",1,"F","Y","2013-07-08","2013-08-05","2013-08-04","",28.0,null,null,null,"","PRURITUS","ITCHING",null,"PRURITUS",null,"HLT_0778",null,"HLGT_0695",null,"SKIN AND SUBCUTANEOUS TISSUE DISORDERS","SKIN AND SUBCUTANEOUS TISSUE DISORDERS",null,"MILD","N","N","N","N","N","N","N","N","PROBABLE","","NOT RECOVERED/NOT RESOLVED",3.0,"Y","","","Y","","","","DERMATOLOGIC EVENTS",""],["CDISCPILOT01","704","01-704-1323","Xanomeline Low Dose",54,68,"65-80",2,"WHITE",1,"F","Y","2013-07-08","2013-08-05","2013-08-04","",28.0,null,null,null,"","RASH","RASH",null,"RASH",null,"HLT_0762",null,"HLGT_0198",null,"SKIN AND SUBCUTANEOUS TISSUE DISORDERS","SKIN AND SUBCUTANEOUS TISSUE DISORDERS",null,"MILD","N","N","N","N","N","N","N","N","PROBABLE","","NOT RECOVERED/NOT RESOLVED",2.0,"Y","","Y","Y","","","","DERMATOLOGIC EVENTS","Y"],["CDISCPILOT01","704","01-704-1323","Xanomeline Low Dose",54,68,"65-80",2,"WHITE",1,"F","Y","2013-07-08","2013-08-05","2013-07-30","",23.0,"2013-08-03",27.0,5.0,"DAYS","VIRAL INFECTION","VIRAL INFECTION",null,"VIRAL INFECTION",null,"HLT_0733",null,"HLGT_0408",null,"INFECTIONS AND INFESTATIONS","INFECTIONS AND INFESTATIONS",null,"MILD","N","N","N","N","N","N","N","N","NONE","","RECOVERED/RESOLVED",1.0,"Y","Y","Y","Y","","","","",""],["CDISCPILOT01","704","01-704-1325","Xanomeline Low Dose",54,81,">80",3,"WHITE",1,"M","Y","2014-04-23","2014-07-04","2014-07-04","",73.0,null,null,null,"","PRURITUS","ITCHING",null,"PRURITUS",null,"HLT_0778",null,"HLGT_0695",null,"SKIN AND SUBCUTANEOUS TISSUE DISORDERS","SKIN AND SUBCUTANEOUS TISSUE DISORDERS",null,"MILD","N","N","N","N","N","N","N","N","PROBABLE","","NOT RECOVERED/NOT RESOLVED",2.0,"Y","","","Y","","","","DERMATOLOGIC EVENTS",""],["CDISCPILOT01","704","01-704-1325","Xanomeline Low Dose",54,81,">80",3,"WHITE",1,"M","Y","2014-04-23","2014-07-04","2014-05-23","",31.0,null,null,null,"","RASH","RASH",null,"RASH",null,"HLT_0762",null,"HLGT_0198",null,"SKIN AND SUBCUTANEOUS TISSUE DISORDERS","SKIN AND SUBCUTANEOUS TISSUE DISORDERS",null,"MILD","N","N","N","N","N","N","N","N","PROBABLE","","NOT RECOVERED/NOT RESOLVED",1.0,"Y","Y","Y","Y","","","","DERMATOLOGIC EVENTS","Y"],["CDISCPILOT01","704","01-704-1332","Xanomeline High Dose",81,80,"65-80",2,"WHITE",1,"M","Y","2013-12-09","2014-02-14","2014-02-03","",57.0,null,null,null,"","BURNING SENSATION","BURNING SENSATION",null,"BURNING SENSATION",null,"HLT_0775",null,"HLGT_0456",null,"NERVOUS SYSTEM DISORDERS","NERVOUS SYSTEM DISORDERS",null,"MILD","N","N","N","N","N","N","N","N","PROBABLE","","NOT RECOVERED/NOT RESOLVED",4.0,"Y","","Y","Y","","","","",""],["CDISCPILOT01","704","01-704-1332","Xanomeline High Dose",81,80,"65-80",2,"WHITE",1,"M","Y","2013-12-09","2014-02-14","2014-01-18","",41.0,"2014-02-24",78.0,38.0,"DAYS","PRURITUS","ITCHING",null,"PRURITUS",null,"HLT_0778",null,"HLGT_0695",null,"SKIN AND SUBCUTANEOUS TISSUE DISORDERS","SKIN AND SUBCUTANEOUS TISSUE DISORDERS",null,"MILD","N","N","N","N","N","N","N","N","PROBABLE","","NOT RECOVERED/NOT RESOLVED",2.0,"Y","","","Y","","","","DERMATOLOGIC EVENTS",""],["CDISCPILOT01","704","01-704-1332","Xanomeline High Dose",81,80,"65-80",2,"WHITE",1,"M","Y","2013-12-09","2014-02-14","2014-01-18","",41.0,"2014-02-24",78.0,38.0,"DAYS","PRURITUS","ITCHING",null,"PRURITUS",null,"HLT_0778",null,"HLGT_0695",null,"SKIN AND SUBCUTANEOUS TISSUE DISORDERS","SKIN AND SUBCUTANEOUS TISSUE DISORDERS",null,"MILD","N","N","N","N","N","N","N","N","PROBABLE","","RECOVERED/RESOLVED",6.0,"Y","","","","","","","DERMATOLOGIC EVENTS",""],["CDISCPILOT01","704","01-704-1332","Xanomeline High Dose",81,80,"65-80",2,"WHITE",1,"M","Y","2013-12-09","2014-02-14","2013-12-10","",2.0,"2014-02-24",78.0,77.0,"DAYS","RASH","RASH",null,"RASH",null,"HLT_0762",null,"HLGT_0198",null,"SKIN AND SUBCUTANEOUS TISSUE DISORDERS","SKIN AND SUBCUTANEOUS TISSUE DISORDERS",null,"MILD","N","N","N","N","N","N","N","N","NONE","","NOT RECOVERED/NOT RESOLVED",1.0,"Y","Y","Y","Y","","","","DERMATOLOGIC EVENTS","Y"],["CDISCPILOT01","704","01-704-1332","Xanomeline High Dose",81,80,"65-80",2,"WHITE",1,"M","Y","2013-12-09","2014-02-14","2013-12-10","",2.0,"2014-02-24",78.0,77.0,"DAYS","RASH","RASH",null,"RASH",null,"HLT_0762",null,"HLGT_0198",null,"SKIN AND SUBCUTANEOUS TISSUE DISORDERS","SKIN AND SUBCUTANEOUS TISSUE DISORDERS",null,"MODERATE","N","N","N","N","N","N","N","N","NONE","","NOT RECOVERED/NOT RESOLVED",3.0,"Y","","","","","","","DERMATOLOGIC EVENTS",""],["CDISCPILOT01","704","01-704-1332","Xanomeline High Dose",81,80,"65-80",2,"WHITE",1,"M","Y","2013-12-09","2014-02-14","2013-12-10","",2.0,"2014-02-24",78.0,77.0,"DAYS","RASH","RASH",null,"RASH",null,"HLT_0762",null,"HLGT_0198",null,"SKIN AND SUBCUTANEOUS TISSUE DISORDERS","SKIN AND SUBCUTANEOUS TISSUE DISORDERS",null,"MODERATE","N","N","N","N","N","N","N","N","NONE","","RECOVERED/RESOLVED",5.0,"Y","","","","","","","DERMATOLOGIC EVENTS",""],["CDISCPILOT01","704","01-704-1351","Placebo",0,70,"65-80",2,"WHITE",1,"M","Y","2013-10-12","2014-04-18","2013-10-27","",16.0,"2014-04-04",175.0,160.0,"DAYS","FLATULENCE","GAS",null,"FLATULENCE",null,"HLT_0356",null,"HLGT_0504",null,"GASTROINTESTINAL DISORDERS","GASTROINTESTINAL DISORDERS",null,"MILD","N","N","N","N","N","N","N","N","NONE","","NOT RECOVERED/NOT RESOLVED",2.0,"Y","","Y","Y","","","","",""],["CDISCPILOT01","704","01-704-1351","Placebo",0,70,"65-80",2,"WHITE",1,"M","Y","2013-10-12","2014-04-18","2013-10-27","",16.0,"2014-04-04",175.0,160.0,"DAYS","FLATULENCE","GAS",null,"FLATULENCE",null,"HLT_0356",null,"HLGT_0504",null,"GASTROINTESTINAL DISORDERS","GASTROINTESTINAL DISORDERS",null,"MILD","N","N","N","N","N","N","N","N","NONE","","RECOVERED/RESOLVED",4.0,"Y","","","","","","","",""],["CDISCPILOT01","704","01-704-1351","Placebo",0,70,"65-80",2,"WHITE",1,"M","Y","2013-10-12","2014-04-18","2013-10-27","",16.0,"2014-04-04",175.0,160.0,"DAYS","POLLAKIURIA","URINARY FREQUENCY",null,"POLLAKIURIA",null,"HLT_0393",null,"HLGT_0560",null,"RENAL AND URINARY DISORDERS","RENAL AND URINARY DISORDERS",null,"MILD","N","N","N","N","N","N","N","N","NONE","","NOT RECOVERED/NOT RESOLVED",1.0,"Y","Y","Y","Y","","","","",""],["CDISCPILOT01","704","01-704-1351","Placebo",0,70,"65-80",2,"WHITE",1,"M","Y","2013-10-12","2014-04-18","2013-10-27","",16.0,"2014-04-04",175.0,160.0,"DAYS","POLLAKIURIA","URINARY FREQUENCY",null,"POLLAKIURIA",null,"HLT_0393",null,"HLGT_0560",null,"RENAL AND URINARY DISORDERS","RENAL AND URINARY DISORDERS",null,"MILD","N","N","N","N","N","N","N","N","NONE","","RECOVERED/RESOLVED",3.0,"Y","","","","","","","",""],["CDISCPILOT01","704","01-704-1388","Placebo",0,81,">80",3,"WHITE",1,"M","Y","2012-12-07","2013-06-11","2012-08-23","",-106.0,null,null,null,"","HEADACHE","HEADACHE",null,"HEADACHE",null,"HLT_0064",null,"HLGT_0344",null,"NERVOUS SYSTEM DISORDERS","NERVOUS SYSTEM DISORDERS",null,"MODERATE","N","N","N","N","N","N","N","N","NONE","","NOT RECOVERED/NOT RESOLVED",1.0,"","","","","","","","",""],["CDISCPILOT01","704","01-704-1435","Placebo",0,74,"65-80",2,"WHITE",1,"M","Y","2012-11-17","2013-01-09","2013-01-06","",51.0,null,null,null,"","PARKINSON'S DISEASE","DISEASE PARKINSON'S",null,"PARKINSON'S DISEASE",null,"HLT_0279",null,"HLGT_0313",null,"NERVOUS SYSTEM DISORDERS","NERVOUS SYSTEM DISORDERS",null,"MILD","N","N","N","N","N","N","N","N","NONE","","NOT RECOVERED/NOT RESOLVED",1.0,"Y","Y","Y","Y","","","","",""],["CDISCPILOT01","704","01-704-1445","Placebo",0,75,"65-80",2,"WHITE",1,"M","Y","2014-05-11","2014-11-01","2014-10-31","",174.0,"2014-10-31",174.0,1.0,"DAYS","COMPLETED SUICIDE","SUICIDE",null,"COMPLETED SUICIDE",null,"HLT_0625",null,"HLGT_0013",null,"PSYCHIATRIC DISORDERS","PSYCHIATRIC DISORDERS",null,"SEVERE","N","N","N","N","Y","N","N","N","NONE","","FATAL",1.0,"Y","Y","Y","Y","","","","",""],["CDISCPILOT01","705","01-705-1031","Xanomeline Low Dose",54,56,"<65",1,"WHITE",1,"F","Y","2013-11-27","2014-05-11","2013-12-25","",29.0,null,null,null,"","RASH","RASH",null,"RASH",null,"HLT_0762",null,"HLGT_0198",null,"SKIN AND SUBCUTANEOUS TISSUE DISORDERS","SKIN AND SUBCUTANEOUS TISSUE DISORDERS",null,"MILD","N","N","N","N","N","N","N","N","POSSIBLE","","NOT RECOVERED/NOT RESOLVED",1.0,"Y","Y","Y","Y","","","","DERMATOLOGIC EVENTS","Y"],["CDISCPILOT01","705","01-705-1059","Placebo",0,66,"65-80",2,"WHITE",1,"F","Y","2013-08-05","2013-12-05","2013-11-02","",90.0,null,null,null,"","ERYTHEMA","ERYTHEMA",null,"ERYTHEMA",null,"HLT_0284",null,"HLGT_0192",null,"SKIN AND SUBCUTANEOUS TISSUE DISORDERS","SKIN AND SUBCUTANEOUS TISSUE DISORDERS",null,"MODERATE","N","N","N","N","N","N","N","N","PR