{"datasetJSONCreationDateTime":"2026-05-05T17:26:29","datasetJSONVersion":"1.1.0","fileOID":"/cloud/project/pilot5-submission/pilot5-input/adamdata/adtte","dbLastModifiedDateTime":"2026-05-05T17:26","originator":"R Submission Pilot 5","sourceSystem":{"name":"R on linux-gnu 6.17.0-1013-aws","version":"R version 4.4.3 (2025-02-28)"},"studyOID":"Pilot 5","metaDataVersionOID":"MDV.TDF_ADaM.ADaM-IG.1.1","metaDataRef":"/cloud/project/pilot5-submission/pilot5-input/adamdata/define.xml","itemGroupOID":"IG.ADTTE","records":254,"name":"ADTTE","label":"AE Time To 1st Derm. Event Analysis","columns":[{"itemOID":"IT.ADTTE.STUDYID","name":"STUDYID","label":"Study Identifier","dataType":"string","length":12},{"itemOID":"IT.ADTTE.SITEID","name":"SITEID","label":"Study Site Identifier","dataType":"string","length":3},{"itemOID":"IT.ADTTE.USUBJID","name":"USUBJID","label":"Unique Subject Identifier","dataType":"string","length":11,"keySequence":1},{"itemOID":"IT.ADTTE.AGE","name":"AGE","label":"Age","dataType":"integer"},{"itemOID":"IT.ADTTE.AGEGR1","name":"AGEGR1","label":"Pooled Age Group 1","dataType":"string","length":5},{"itemOID":"IT.ADTTE.AGEGR1N","name":"AGEGR1N","label":"Pooled Age Group 1 (N)","dataType":"integer"},{"itemOID":"IT.ADTTE.RACE","name":"RACE","label":"Race","dataType":"string","length":32},{"itemOID":"IT.ADTTE.RACEN","name":"RACEN","label":"Race (N)","dataType":"integer"},{"itemOID":"IT.ADTTE.SEX","name":"SEX","label":"Sex","dataType":"string","length":1},{"itemOID":"IT.ADTTE.TRTSDT","name":"TRTSDT","label":"Date of First Exposure to Treatment","dataType":"date","displayFormat":"DATE9.","targetDataType":"integer"},{"itemOID":"IT.ADTTE.TRTEDT","name":"TRTEDT","label":"Date of Last Exposure to Treatment","dataType":"date","displayFormat":"DATE9.","targetDataType":"integer"},{"itemOID":"IT.ADTTE.TRTDUR","name":"TRTDUR","label":"Duration of treatment (days)","dataType":"integer"},{"itemOID":"IT.ADTTE.TRTP","name":"TRTP","label":"Planned Treatment","dataType":"string","length":20},{"itemOID":"IT.ADTTE.TRTA","name":"TRTA","label":"Actual Treatment","dataType":"string","length":20},{"itemOID":"IT.ADTTE.TRTAN","name":"TRTAN","label":"Actual Treatment (N)","dataType":"integer"},{"itemOID":"IT.ADTTE.PARAM","name":"PARAM","label":"Parameter","dataType":"string","length":100},{"itemOID":"IT.ADTTE.PARAMCD","name":"PARAMCD","label":"Parameter Code","dataType":"string","length":8,"keySequence":2},{"itemOID":"IT.ADTTE.AVAL","name":"AVAL","label":"Analysis Value","dataType":"integer"},{"itemOID":"IT.ADTTE.STARTDT","name":"STARTDT","label":"Time-to-Event Origin Date for Subject","dataType":"date","displayFormat":"DATE9.","targetDataType":"integer"},{"itemOID":"IT.ADTTE.ADT","name":"ADT","label":"Analysis Date","dataType":"date","displayFormat":"DATE9.","targetDataType":"integer"},{"itemOID":"IT.ADTTE.CNSR","name":"CNSR","label":"Censor","dataType":"integer"},{"itemOID":"IT.ADTTE.EVNTDESC","name":"EVNTDESC","label":"Event or Censoring Description","dataType":"string","length":25},{"itemOID":"IT.ADTTE.SRCDOM","name":"SRCDOM","label":"Source Data","dataType":"string","length":4},{"itemOID":"IT.ADTTE.SRCVAR","name":"SRCVAR","label":"Source Variable","dataType":"string","length":6},{"itemOID":"IT.ADTTE.SRCSEQ","name":"SRCSEQ","label":"Source Sequence Number","dataType":"integer"},{"itemOID":"IT.ADTTE.SAFFL","name":"SAFFL","label":"Safety Population Flag","dataType":"string","length":1}],"rows":[["CDISCPILOT01","701","01-701-1015",63,"<65",1,"WHITE",1,"F","2014-01-02","2014-07-02",182,"Placebo","Placebo",0,"Time to First Dermatologic Event","TTDE",2.0,"2014-01-02","2014-01-03",0.0,"Dematologic Event Occured","ADAE","ASTDT",1,"Y"],["CDISCPILOT01","701","01-701-1023",64,"<65",1,"WHITE",1,"M","2012-08-05","2012-09-01",28,"Placebo","Placebo",0,"Time to First Dermatologic Event","TTDE",3.0,"2012-08-05","2012-08-07",0.0,"Dematologic Event Occured","ADAE","ASTDT",1,"Y"],["CDISCPILOT01","701","01-701-1028",71,"65-80",2,"WHITE",1,"M","2013-07-19","2014-01-14",180,"Xanomeline High Dose","Xanomeline High Dose",81,"Time to First Dermatologic Event","TTDE",3.0,"2013-07-19","2013-07-21",0.0,"Dematologic Event Occured","ADAE","ASTDT",1,"Y"],["CDISCPILOT01","701","01-701-1033",74,"65-80",2,"WHITE",1,"M","2014-03-18","2014-03-31",14,"Xanomeline Low Dose","Xanomeline Low Dose",54,"Time to First Dermatologic Event","TTDE",28.0,"2014-03-18","2014-04-14",1.0,"Study Completion Date","ADSL","RFENDT",null,"Y"],["CDISCPILOT01","701","01-701-1034",77,"65-80",2,"WHITE",1,"F","2014-07-01","2014-12-30",183,"Xanomeline High Dose","Xanomeline High Dose",81,"Time to First Dermatologic Event","TTDE",58.0,"2014-07-01","2014-08-27",0.0,"Dematologic Event Occured","ADAE","ASTDT",1,"Y"],["CDISCPILOT01","701","01-701-1047",85,">80",3,"WHITE",1,"F","2013-02-12","2013-03-09",26,"Placebo","Placebo",0,"Time to First Dermatologic Event","TTDE",46.0,"2013-02-12","2013-03-29",1.0,"Study Completion Date","ADSL","RFENDT",null,"Y"],["CDISCPILOT01","701","01-701-1097",68,"65-80",2,"WHITE",1,"M","2014-01-01","2014-07-09",190,"Xanomeline Low Dose","Xanomeline Low Dose",54,"Time to First Dermatologic Event","TTDE",3.0,"2014-01-01","2014-01-03",0.0,"Dematologic Event Occured","ADAE","ASTDT",1,"Y"],["CDISCPILOT01","701","01-701-1111",81,">80",3,"WHITE",1,"F","2012-09-07","2012-09-16",10,"Xanomeline Low Dose","Xanomeline Low Dose",54,"Time to First Dermatologic Event","TTDE",11.0,"2012-09-07","2012-09-17",1.0,"Study Completion Date","ADSL","RFENDT",null,"Y"],["CDISCPILOT01","701","01-701-1115",84,">80",3,"WHITE",1,"M","2012-11-30","2013-01-23",55,"Xanomeline Low Dose","Xanomeline Low Dose",54,"Time to First Dermatologic Event","TTDE",3.0,"2012-11-30","2012-12-02",0.0,"Dematologic Event Occured","ADAE","ASTDT",1,"Y"],["CDISCPILOT01","701","01-701-1118",52,"<65",1,"WHITE",1,"M","2014-03-12","2014-09-09",182,"Placebo","Placebo",0,"Time to First Dermatologic Event","TTDE",182.0,"2014-03-12","2014-09-09",1.0,"Study Completion Date","ADSL","RFENDT",null,"Y"],["CDISCPILOT01","701","01-701-1130",84,">80",3,"WHITE",1,"M","2014-02-15","2014-08-16",183,"Placebo","Placebo",0,"Time to First Dermatologic Event","TTDE",97.0,"2014-02-15","2014-05-22",0.0,"Dematologic Event Occured","ADAE","ASTDT",7,"Y"],["CDISCPILOT01","701","01-701-1133",81,">80",3,"WHITE",1,"F","2012-10-28","2013-04-28",183,"Xanomeline High Dose","Xanomeline High Dose",81,"Time to First Dermatologic Event","TTDE",61.0,"2012-10-28","2012-12-27",0.0,"Dematologic Event Occured","ADAE","ASTDT",1,"Y"],["CDISCPILOT01","701","01-701-1146",75,"65-80",2,"WHITE",1,"F","2013-05-20","2013-06-26",38,"Xanomeline High Dose","Xanomeline High Dose",81,"Time to First Dermatologic Event","TTDE",13.0,"2013-05-20","2013-06-01",0.0,"Dematologic Event Occured","ADAE","ASTDT",3,"Y"],["CDISCPILOT01","701","01-701-1148",57,"<65",1,"WHITE",1,"M","2013-08-23","2014-02-20",182,"Xanomeline High Dose","Xanomeline High Dose",81,"Time to First Dermatologic Event","TTDE",3.0,"2013-08-23","2013-08-25",0.0,"Dematologic Event Occured","ADAE","ASTDT",1,"Y"],["CDISCPILOT01","701","01-701-1153",79,"65-80",2,"WHITE",1,"F","2013-09-23","2014-03-16",175,"Placebo","Placebo",0,"Time to First Dermatologic Event","TTDE",191.0,"2013-09-23","2014-04-01",1.0,"Study Completion Date","ADSL","RFENDT",null,"Y"],["CDISCPILOT01","701","01-701-1180",56,"<65",1,"WHITE",1,"M","2013-02-12","2013-03-18",35,"Xanomeline High Dose","Xanomeline High Dose",81,"Time to First Dermatologic Event","TTDE",36.0,"2013-02-12","2013-03-19",0.0,"Dematologic Event Occured","ADAE","ASTDT",7,"Y"],["CDISCPILOT01","701","01-701-1181",79,"65-80",2,"WHITE",1,"F","2013-12-05","2013-12-09",5,"Xanomeline High Dose","Xanomeline High Dose",81,"Time to First Dermatologic Event","TTDE",8.0,"2013-12-05","2013-12-12",1.0,"Study Completion Date","ADSL","RFENDT",null,"Y"],["CDISCPILOT01","701","01-701-1188",71,"65-80",2,"WHITE",1,"M","2013-02-15","2013-03-24",38,"Xanomeline Low Dose","Xanomeline Low Dose",54,"Time to First Dermatologic Event","TTDE",2.0,"2013-02-15","2013-02-16",0.0,"Dematologic Event Occured","ADAE","ASTDT",1,"Y"],["CDISCPILOT01","701","01-701-1192",80,"65-80",2,"WHITE",1,"F","2012-07-22","2013-01-20",183,"Xanomeline Low Dose","Xanomeline Low Dose",54,"Time to First Dermatologic Event","TTDE",17.0,"2012-07-22","2012-08-07",0.0,"Dematologic Event Occured","ADAE","ASTDT",3,"Y"],["CDISCPILOT01","701","01-701-1203",81,">80",3,"BLACK OR AFRICAN AMERICAN",2,"F","2013-02-02","2013-08-03",183,"Placebo","Placebo",0,"Time to First Dermatologic Event","TTDE",183.0,"2013-02-02","2013-08-03",1.0,"Study Completion Date","ADSL","RFENDT",null,"Y"],["CDISCPILOT01","701","01-701-1211",76,"65-80",2,"WHITE",1,"F","2012-11-15","2013-01-12",59,"Xanomeline Low Dose","Xanomeline Low Dose",54,"Time to First Dermatologic Event","TTDE",2.0,"2012-11-15","2012-11-16",0.0,"Dematologic Event Occured","ADAE","ASTDT",1,"Y"],["CDISCPILOT01","701","01-701-1234",69,"65-80",2,"WHITE",1,"M","2013-03-30","2013-09-22",177,"Placebo","Placebo",0,"Time to First Dermatologic Event","TTDE",177.0,"2013-03-30","2013-09-22",1.0,"Study Completion Date","ADSL","RFENDT",null,"Y"],["CDISCPILOT01","701","01-701-1239",56,"<65",1,"WHITE",1,"M","2014-01-11","2014-07-10",181,"Xanomeline High Dose","Xanomeline High Dose",81,"Time to First Dermatologic Event","TTDE",2.0,"2014-01-11","2014-01-12",0.0,"Dematologic Event Occured","ADAE","ASTDT",1,"Y"],["CDISCPILOT01","701","01-701-1275",61,"<65",1,"AMERICAN INDIAN OR ALASKA NATIVE",6,"M","2014-02-07","2014-05-31",114,"Xanomeline High Dose","Xanomeline High Dose",81,"Time to First Dermatologic Event","TTDE",18.0,"2014-02-07","2014-02-24",0.0,"Dematologic Event Occured","ADAE","ASTDT",3,"Y"],["CDISCPILOT01","701","01-701-1287",56,"<65",1,"WHITE",1,"F","2014-01-25","2014-07-26",183,"Xanomeline High Dose","Xanomeline High Dose",81,"Time to First Dermatologic Event","TTDE",29.0,"2014-01-25","2014-02-22",0.0,"Dematologic Event Occured","ADAE","ASTDT",2,"Y"],["CDISCPILOT01","701","01-701-1294",67,"65-80",2,"WHITE",1,"M","2013-03-24","2013-06-14",83,"Xanomeline Low Dose","Xanomeline Low Dose",54,"Time to First Dermatologic Event","TTDE",57.0,"2013-03-24","2013-05-19",0.0,"Dematologic Event Occured","ADAE","ASTDT",2,"Y"],["CDISCPILOT01","701","01-701-1302",61,"<65",1,"WHITE",1,"M","2013-08-29","2013-11-05",69,"Xanomeline High Dose","Xanomeline High Dose",81,"Time to First Dermatologic Event","TTDE",2.0,"2013-08-29","2013-08-30",0.0,"Dematologic Event Occured","ADAE","ASTDT",1,"Y"],["CDISCPILOT01","701","01-701-1317",68,"65-80",2,"WHITE",1,"M","2014-05-22","2014-11-20",183,"Xanomeline Low Dose","Xanomeline Low Dose",54,"Time to First Dermatologic Event","TTDE",33.0,"2014-05-22","2014-06-23",0.0,"Dematologic Event Occured","ADAE","ASTDT",3,"Y"],["CDISCPILOT01","701","01-701-1324",79,"65-80",2,"WHITE",1,"M","2012-10-02","2013-04-02",183,"Xanomeline Low Dose","Xanomeline Low Dose",54,"Time to First Dermatologic Event","TTDE",21.0,"2012-10-02","2012-10-22",0.0,"Dematologic Event Occured","ADAE","ASTDT",1,"Y"],["CDISCPILOT01","701","01-701-1341",51,"<65",1,"WHITE",1,"M","2013-01-05","2013-01-26",22,"Xanomeline Low Dose","Xanomeline Low Dose",54,"Time to First Dermatologic Event","TTDE",15.0,"2013-01-05","2013-01-19",0.0,"Dematologic Event Occured","ADAE","ASTDT",1,"Y"],["CDISCPILOT01","701","01-701-1345",63,"<65",1,"WHITE",1,"F","2013-10-08","2014-03-18",162,"Placebo","Placebo",0,"Time to First Dermatologic Event","TTDE",162.0,"2013-10-08","2014-03-18",1.0,"Study Completion Date","ADSL","RFENDT",null,"Y"],["CDISCPILOT01","701","01-701-1360",67,"65-80",2,"WHITE",1,"M","2013-07-31","2013-08-05",6,"Xanomeline High Dose","Xanomeline High Dose",81,"Time to First Dermatologic Event","TTDE",3.0,"2013-07-31","2013-08-02",0.0,"Dematologic Event Occured","ADAE","ASTDT",1,"Y"],["CDISCPILOT01","701","01-701-1363",81,">80",3,"BLACK OR AFRICAN AMERICAN",2,"F","2013-05-30","2013-11-27",182,"Placebo","Placebo",0,"Time to First Dermatologic Event","TTDE",48.0,"2013-05-30","2013-07-16",0.0,"Dematologic Event Occured","ADAE","ASTDT",3,"Y"],["CDISCPILOT01","701","01-701-1383",72,"65-80",2,"WHITE",1,"F","2013-02-04","2013-08-06",184,"Xanomeline High Dose","Xanomeline High Dose",81,"Time to First Dermatologic Event","TTDE",4.0,"2013-02-04","2013-02-07",0.0,"Dematologic Event Occured","ADAE","ASTDT",1,"Y"],["CDISCPILOT01","701","01-701-1387",87,">80",3,"WHITE",1,"F","2014-03-12","2014-03-25",14,"Placebo","Placebo",0,"Time to First Dermatologic Event","TTDE",14.0,"2014-03-12","2014-03-25",1.0,"Study Completion Date","ADSL","RFENDT",null,"Y"],["CDISCPILOT01","701","01-701-1392",78,"65-80",2,"WHITE",1,"M","2012-10-28","2013-04-28",183,"Placebo","Placebo",0,"Time to First Dermatologic Event","TTDE",183.0,"2012-10-28","2013-04-28",1.0,"Study Completion Date","ADSL","RFENDT",null,"Y"],["CDISCPILOT01","701","01-701-1415",85,">80",3,"WHITE",1,"M","2013-09-23","2014-03-24",183,"Placebo","Placebo",0,"Time to First Dermatologic Event","TTDE",183.0,"2013-09-23","2014-03-24",1.0,"Study Completion Date","ADSL","RFENDT",null,"Y"],["CDISCPILOT01","701","01-701-1429",84,">80",3,"WHITE",1,"F","2013-03-19","2013-04-30",43,"Xanomeline Low Dose","Xanomeline Low Dose",54,"Time to First Dermatologic Event","TTDE",43.0,"2013-03-19","2013-04-30",1.0,"Study Completion Date","ADSL","RFENDT",null,"Y"],["CDISCPILOT01","701","01-701-1440",70,"65-80",2,"WHITE",1,"M","2013-08-08","2014-02-05",182,"Placebo","Placebo",0,"Time to First Dermatologic Event","TTDE",182.0,"2013-08-08","2014-02-05",1.0,"Study Completion Date","ADSL","RFENDT",null,"Y"],["CDISCPILOT01","701","01-701-1442",57,"<65",1,"BLACK OR AFRICAN AMERICAN",2,"F","2013-10-26","2014-04-26",183,"Xanomeline Low Dose","Xanomeline Low Dose",54,"Time to First Dermatologic Event","TTDE",77.0,"2013-10-26","2014-01-10",0.0,"Dematologic Event Occured","ADAE","ASTDT",1,"Y"],["CDISCPILOT01","701","01-701-1444",63,"<65",1,"WHITE",1,"M","2013-01-05","2013-02-12",39,"Xanomeline High Dose","Xanomeline High Dose",81,"Time to First Dermatologic Event","TTDE",15.0,"2013-01-05","2013-01-19",0.0,"Dematologic Event Occured","ADAE","ASTDT",1,"Y"],["CDISCPILOT01","702","01-702-1082",84,">80",3,"WHITE",1,"F","2013-07-26","2013-10-13",80,"Xanomeline Low Dose","Xanomeline Low Dose",54,"Time to First Dermatologic Event","TTDE",46.0,"2013-07-26","2013-09-09",0.0,"Dematologic Event Occured","ADAE","ASTDT",9,"Y"],["CDISCPILOT01","703","01-703-1042",64,"<65",1,"WHITE",1,"M","2013-03-02","2013-08-31",183,"Placebo","Placebo",0,"Time to First Dermatologic Event","TTDE",183.0,"2013-03-02","2013-08-31",1.0,"Study Completion Date","ADSL","RFENDT",null,"Y"],["CDISCPILOT01","703","01-703-1076",69,"65-80",2,"WHITE",1,"M","2013-10-25","2013-12-24",61,"Xanomeline High Dose","Xanomeline High Dose",81,"Time to First Dermatologic Event","TTDE",30.0,"2013-10-25","2013-11-23",0.0,"Dematologic Event Occured","ADAE","ASTDT",4,"Y"],["CDISCPILOT01","703","01-703-1086",71,"65-80",2,"WHITE",1,"M","2012-09-02","2012-12-04",94,"Xanomeline Low Dose","Xanomeline Low Dose",54,"Time to First Dermatologic Event","TTDE",12.0,"2012-09-02","2012-09-13",0.0,"Dematologic Event Occured","ADAE","ASTDT",1,"Y"],["CDISCPILOT01","703","01-703-1096",81,">80",3,"WHITE",1,"F","2013-01-25","2013-03-16",51,"Placebo","Placebo",0,"Time to First Dermatologic Event","TTDE",64.0,"2013-01-25","2013-03-29",1.0,"Study Completion Date","ADSL","RFENDT",null,"Y"],["CDISCPILOT01","703","01-703-1100",84,">80",3,"WHITE",1,"F","2013-03-13","2013-09-14",186,"Placebo","Placebo",0,"Time to First Dermatologic Event","TTDE",24.0,"2013-03-13","2013-04-05",0.0,"Dematologic Event Occured","ADAE","ASTDT",1,"Y"],["CDISCPILOT01","703","01-703-1119",81,">80",3,"WHITE",1,"F","2013-02-20","2013-06-13",114,"Xanomeline Low Dose","Xanomeline Low Dose",54,"Time to First Dermatologic Event","TTDE",25.0,"2013-02-20","2013-03-16",0.0,"Dematologic Event Occured","ADAE","ASTDT",1,"Y"],["CDISCPILOT01","703","01-703-1175",75,"65-80",2,"WHITE",1,"M","2013-12-20","2013-12-26",7,"Placebo","Placebo",0,"Time to First Dermatologic Event","TTDE",12.0,"2013-12-20","2013-12-31",1.0,"Study Completion Date","ADSL","RFENDT",null,"Y"],["CDISCPILOT01","703","01-703-1182",84,">80",3,"WHITE",1,"M","2013-10-17","2013-12-11",56,"Xanomeline Low Dose","Xanomeline Low Dose",54,"Time to First Dermatologic Event","TTDE",15.0,"2013-10-17","2013-10-31",0.0,"Dematologic Event Occured","ADAE","ASTDT",1,"Y"],["CDISCPILOT01","703","01-703-1197",76,"65-80",2,"BLACK OR AFRICAN AMERICAN",2,"F","2013-06-16","2013-06-29",14,"Xanomeline Low Dose","Xanomeline Low Dose",54,"Time to First Dermatologic Event","TTDE",37.0,"2013-06-16","2013-07-22",1.0,"Study Completion Date","ADSL","RFENDT",null,"Y"],["CDISCPILOT01","703","01-703-1210",72,"65-80",2,"WHITE",1,"F","2013-03-16","2013-09-06",175,"Placebo","Placebo",0,"Time to First Dermatologic Event","TTDE",175.0,"2013-03-16","2013-09-06",1.0,"Study Completion Date","ADSL","RFENDT",null,"Y"],["CDISCPILOT01","703","01-703-1258",78,"65-80",2,"WHITE",1,"F","2012-07-20","2013-01-11",176,"Xanomeline High Dose","Xanomeline High Dose",81,"Time to First Dermatologic Event","TTDE",47.0,"2012-07-20","2012-09-04",0.0,"Dematologic Event Occured","ADAE","ASTDT",4,"Y"],["CDISCPILOT01","703","01-703-1279",72,"65-80",2,"WHITE",1,"F","2013-05-13","2013-06-03",22,"Xanomeline Low Dose","Xanomeline Low Dose",54,"Time to First Dermatologic Event","TTDE",41.0,"2013-05-13","2013-06-22",1.0,"Study Completion Date","ADSL","RFENDT",null,"Y"],["CDISCPILOT01","703","01-703-1295",88,">80",3,"WHITE",1,"F","2013-11-21","2014-04-19",150,"Xanomeline High Dose","Xanomeline High Dose",81,"Time to First Dermatologic Event","TTDE",180.0,"2013-11-21","2014-05-19",1.0,"Study Completion Date","ADSL","RFENDT",null,"Y"],["CDISCPILOT01","703","01-703-1299",81,">80",3,"WHITE",1,"F","2012-09-12","2013-03-13",183,"Placebo","Placebo",0,"Time to First Dermatologic Event","TTDE",183.0,"2012-09-12","2013-03-13",1.0,"Study Completion Date","ADSL","RFENDT",null,"Y"],["CDISCPILOT01","703","01-703-1335",67,"65-80",2,"BLACK OR AFRICAN AMERICAN",2,"F","2014-03-17","2014-05-07",52,"Xanomeline High Dose","Xanomeline High Dose",81,"Time to First Dermatologic Event","TTDE",69.0,"2014-03-17","2014-05-24",1.0,"Study Completion Date","ADSL","RFENDT",null,"Y"],["CDISCPILOT01","703","01-703-1379",81,">80",3,"BLACK OR AFRICAN AMERICAN",2,"F","2013-09-22","2014-03-21",181,"Xanomeline Low Dose","Xanomeline Low Dose",54,"Time to First Dermatologic Event","TTDE",181.0,"2013-09-22","2014-03-21",1.0,"Study Completion Date","ADSL","RFENDT",null,"Y"],["CDISCPILOT01","703","01-703-1403",67,"65-80",2,"WHITE",1,"M","2012-12-12","2012-12-13",2,"Xanomeline High Dose","Xanomeline High Dose",81,"Time to First Dermatologic Event","TTDE",8.0,"2012-12-12","2012-12-19",1.0,"Study Completion Date","ADSL","RFENDT",null,"Y"],["CDISCPILOT01","703","01-703-1439",76,"65-80",2,"WHITE",1,"F","2014-03-12","2014-09-11",184,"Xanomeline High Dose","Xanomeline High Dose",81,"Time to First Dermatologic Event","TTDE",44.0,"2014-03-12","2014-04-24",0.0,"Dematologic Event Occured","ADAE","ASTDT",1,"Y"],["CDISCPILOT01","704","01-704-1008",76,"65-80",2,"WHITE",1,"F","2013-01-13","2013-02-21",40,"Xanomeline High Dose","Xanomeline High Dose",81,"Time to First Dermatologic Event","TTDE",44.0,"2013-01-13","2013-02-25",1.0,"Study Completion Date","ADSL","RFENDT",null,"Y"],["CDISCPILOT01","704","01-704-1009",83,">80",3,"WHITE",1,"M","2013-08-27","2013-09-25",30,"Xanomeline Low Dose","Xanomeline Low Dose",54,"Time to First Dermatologic Event","TTDE",19.0,"2013-08-27","2013-09-14",0.0,"Dematologic Event Occured","ADAE","ASTDT",3,"Y"],["CDISCPILOT01","704","01-704-1010",80,"65-80",2,"WHITE",1,"M","2014-02-21","2014-07-08",138,"Placebo","Placebo",0,"Time to First Dermatologic Event","TTDE",139.0,"2014-02-21","2014-07-09",1.0,"Study Completion Date","ADSL","RFENDT",null,"Y"],["CDISCPILOT01","704","01-704-1017",77,"65-80",2,"WHITE",1,"M","2013-10-06","2013-11-18",44,"Xanomeline High Dose","Xanomeline High Dose",81,"Time to First Dermatologic Event","TTDE",31.0,"2013-10-06","2013-11-05",0.0,"Dematologic Event Occured","ADAE","ASTDT",5,"Y"],["CDISCPILOT01","704","01-704-1025",81,">80",3,"WHITE",1,"F","2013-09-27","2013-10-24",28,"Xanomeline Low Dose","Xanomeline Low Dose",54,"Time to First Dermatologic Event","TTDE",64.0,"2013-09-27","2013-11-29",1.0,"Study Completion Date","ADSL","RFENDT",null,"Y"],["CDISCPILOT01","704","01-704-1065",75,"65-80",2,"WHITE",1,"M","2013-10-24","2013-12-22",60,"Xanomeline High Dose","Xanomeline High Dose",81,"Time to First Dermatologic Event","TTDE",4.0,"2013-10-24","2013-10-27",0.0,"Dematologic Event Occured","ADAE","ASTDT",2,"Y"],["CDISCPILOT01","704","01-704-1074",80,"65-80",2,"WHITE",1,"F","2014-01-22","2014-03-20",58,"Xanomeline High Dose","Xanomeline High Dose",81,"Time to First Dermatologic Event","TTDE",1.0,"2014-01-22","2014-01-22",0.0,"Dematologic Event Occured","ADAE","ASTDT",1,"Y"],["CDISCPILOT01","704","01-704-1093",79,"65-80",2,"WHITE",1,"M","2013-03-15","2013-06-17",95,"Xanomeline High Dose","Xanomeline High Dose",81,"Time to First Dermatologic Event","TTDE",51.0,"2013-03-15","2013-05-04",0.0,"Dematologic Event Occured","ADAE","ASTDT",3,"Y"],["CDISCPILOT01","704","01-704-1114",77,"65-80",2,"WHITE",1,"M","2013-01-23","2013-07-07",166,"Xanomeline Low Dose","Xanomeline Low Dose",54,"Time to First Dermatologic Event","TTDE",30.0,"2013-01-23","2013-02-21",0.0,"Dematologic Event Occured","ADAE","ASTDT",1,"Y"],["CDISCPILOT01","704","01-704-1120",71,"65-80",2,"WHITE",1,"F","2013-12-02","2014-02-01",62,"Xanomeline Low Dose","Xanomeline Low Dose",54,"Time to First Dermatologic Event","TTDE",22.0,"2013-12-02","2013-12-23",0.0,"Dematologic Event Occured","ADAE","ASTDT",1,"Y"],["CDISCPILOT01","704","01-704-1127",84,">80",3,"WHITE",1,"F","2013-10-02","2014-03-31",181,"Placebo","Placebo",0,"Time to First Dermatologic Event","TTDE",181.0,"2013-10-02","2014-03-31",1.0,"Study Completion Date","ADSL","RFENDT",null,"Y"],["CDISCPILOT01","704","01-704-1135",74,"65-80",2,"WHITE",1,"F","2013-10-31","2014-05-16",198,"Xanomeline Low Dose","Xanomeline Low Dose",54,"Time to First Dermatologic Event","TTDE",39.0,"2013-10-31","2013-12-08",0.0,"Dematologic Event Occured","ADAE","ASTDT",1,"Y"],["CDISCPILOT01","704","01-704-1164",67,"65-80",2,"WHITE",1,"F","2012-09-19","2013-04-04",198,"Placebo","Placebo",0,"Time to First Dermatologic Event","TTDE",198.0,"2012-09-19","2013-04-04",1.0,"Study Completion Date","ADSL","RFENDT",null,"Y"],["CDISCPILOT01","704","01-704-1218",81,">80",3,"WHITE",1,"F","2012-11-19","2013-05-27",190,"Xanomeline Low Dose","Xanomeline Low Dose",54,"Time to First Dermatologic Event","TTDE",190.0,"2012-11-19","2013-05-27",1.0,"Study Completion Date","ADSL","RFENDT",null,"Y"],["CDISCPILOT01","704","01-704-1233",87,">80",3,"WHITE",1,"F","2013-03-21","2013-07-14",116,"Placebo","Placebo",0,"Time to First Dermatologic Event","TTDE",116.0,"2013-03-21","2013-07-14",1.0,"Study Completion Date","ADSL","RFENDT",null,"Y"],["CDISCPILOT01","704","01-704-1241",86,">80",3,"WHITE",1,"M","2013-08-25","2013-10-09",46,"Xanomeline High Dose","Xanomeline High Dose",81,"Time to First Dermatologic Event","TTDE",68.0,"2013-08-25","2013-10-31",1.0,"Study Completion Date","ADSL","RFENDT",null,"Y"],["CDISCPILOT01","704","01-704-1260",71,"65-80",2,"WHITE",1,"F","2012-08-30","2012-11-04",67,"Placebo","Placebo",0,"Time to First Dermatologic Event","TTDE",142.0,"2012-08-30","2013-01-18",1.0,"Study Completion Date","ADSL","RFENDT",null,"Y"],["CDISCPILOT01","704","01-704-1266",82,">80",3,"WHITE",1,"M","2013-10-13","2013-12-06",55,"Xanomeline High Dose","Xanomeline High Dose",81,"Time to First Dermatologic Event","TTDE",5.0,"2013-10-13","2013-10-17",0.0,"Dematologic Event Occured","ADAE","ASTDT",2,"Y"],["CDISCPILOT01","704","01-704-1323",68,"65-80",2,"WHITE",1,"F","2013-07-08","2013-08-05",29,"Xanomeline Low Dose","Xanomeline Low Dose",54,"Time to First Dermatologic Event","TTDE",28.0,"2013-07-08","2013-08-04",0.0,"Dematologic Event Occured","ADAE","ASTDT",2,"Y"],["CDISCPILOT01","704","01-704-1325",81,">80",3,"WHITE",1,"M","2014-04-23","2014-07-04",73,"Xanomeline Low Dose","Xanomeline Low Dose",54,"Time to First Dermatologic Event","TTDE",31.0,"2014-04-23","2014-05-23",0.0,"Dematologic Event Occured","ADAE","ASTDT",1,"Y"],["CDISCPILOT01","704","01-704-1332",80,"65-80",2,"WHITE",1,"M","2013-12-09","2014-02-14",68,"Xanomeline High Dose","Xanomeline High Dose",81,"Time to First Dermatologic Event","TTDE",2.0,"2013-12-09","2013-12-10",0.0,"Dematologic Event Occured","ADAE","ASTDT",1,"Y"],["CDISCPILOT01","704","01-704-1351",70,"65-80",2,"WHITE",1,"M","2013-10-12","2014-04-18",189,"Placebo","Placebo",0,"Time to First Dermatologic Event","TTDE",189.0,"2013-10-12","2014-04-18",1.0,"Study Completion Date","ADSL","RFENDT",null,"Y"],["CDISCPILOT01","704","01-704-1388",81,">80",3,"WHITE",1,"M","2012-12-07","2013-06-11",187,"Placebo","Placebo",0,"Time to First Dermatologic Event","TTDE",195.0,"2012-12-07","2013-06-19",1.0,"Study Completion Date","ADSL","RFENDT",null,"Y"],["CDISCPILOT01","704","01-704-1435",74,"65-80",2,"WHITE",1,"M","2012-11-17","2013-01-09",54,"Placebo","Placebo",0,"Time to First Dermatologic Event","TTDE",57.0,"2012-11-17","2013-01-12",1.0,"Study Completion Date","ADSL","RFENDT",null,"Y"],["CDISCPILOT01","704","01-704-1445",75,"65-80",2,"WHITE",1,"M","2014-05-11","2014-11-01",175,"Placebo","Placebo",0,"Time to First Dermatologic Event","TTDE",175.0,"2014-05-11","2014-11-01",1.0,"Study Completion Date","ADSL","RFENDT",null,"Y"],["CDISCPILOT01","705","01-705-1018",69,"65-80",2,"WHITE",1,"F","2013-07-05","2013-07-12",8,"Placebo","Placebo",0,"Time to First Dermatologic Event","TTDE",8.0,"2013-07-05","2013-07-12",1.0,"Study Completion Date","ADSL","RFENDT",null,"Y"],["CDISCPILOT01","705","01-705-1031",56,"<65",1,"WHITE",1,"F","2013-11-27","2014-05-11",166,"Xanomeline Low Dose","Xanomeline Low Dose",54,"Time to First Dermatologic Event","TTDE",29.0,"2013-11-27","2013-12-25",0.0,"Dematologic Event Occured","ADAE","ASTDT",1,"Y"],["CDISCPILOT01","705","01-705-1059",66,"65-80",2,"WHITE",1,"F","2013-08-05","2013-12-05",123,"Placebo","Placebo",0,"Time to First Dermatologic Event","TTDE",90.0,"2013-08-05","2013-11-02",0.0,"Dematologic Event Occured","ADAE","ASTDT",1,"Y"],["CDISCPILOT01","705","01-705-1186",84,">80",3,"WHITE",1,"F","2014-01-08","2014-01-26",19,"Placebo","Placebo",0,"Time to First Dermatologic Event","TTDE",31.0,"2014-01-08","2014-02-07",1.0,"Study Completion Date","ADSL","RFENDT",null,"Y"],["CDISCPILOT01","705","01-705-1199",87,">80",3,"WHITE",1,"M","2013-09-16","2013-09-28",13,"Xanomeline Low Dose","Xanomeline Low Dose",54,"Time to First Dermatologic Event","TTDE",14.0,"2013-09-16","2013-09-29",1.0,"Study Completion Date","ADSL","RFENDT",null,"Y"],["CDISCPILOT01","705","01-705-1280",56,"<65",1,"WHITE",1,"F","2014-01-17","2014-07-25",190,"Xanomeline High Dose","Xanomeline High Dose",81,"Time to First Dermatologic Event","TTDE",94.0,"2014-01-17","2014-04-20",0.0,"Dematologic Event Occured","ADAE","ASTDT",1,"Y"],["CDISCPILOT01","705","01-705-1281",73,"65-80",2,"BLACK OR AFRICAN AMERICAN",2,"F","2013-11-28","2014-02-27",92,"Xanomeline High Dose","Xanomeline High Dose",81,"Time to First Dermatologic Event","TTDE",64.0,"2013-11-28","2014-01-30",0.0,"Dematologic Event Occured","ADAE","ASTDT",1,"Y"],["CDISCPILOT01","705","01-705-1282",70,"65-80",2,"BLACK OR AFRICAN AMERICAN",2,"F","2012-12-26","2013-06-24",181,"Placebo","Placebo",0,"Time to First Dermatologic Event","TTDE",181.0,"2012-12-26","2013-06-24",1.0,"Study Completion Date","ADSL","RFENDT",null,"Y"],["CDISCPILOT01","705","01-705-1292",60,"<65",1,"BLACK OR AFRICAN AMERICAN",2,"F","2013-10-14","2014-05-13",212,"Xanomeline Low Dose","Xanomeline Low Dose",54,"Time to First Dermatologic Event","TTDE",15.0,"2013-10-14","2013-10-28",0.0,"Dematologic Event Occured","ADAE","ASTDT",1,"Y"],["CDISCPILOT01","705","01-705-1303",72,"65-80",2,"WHITE",1,"M","2013-12-16","2014-06-02",169,"Xanomeline High Dose","Xanomeline High Dose",81,"Time to First Dermatologic Event","TTDE",52.0,"2013-12-16","2014-02-05",0.0,"Dematologic Event Occured","ADAE","ASTDT",1,"Y"],["CDISCPILOT01","705","01-705-1310",74,"65-80",2,"WHITE",1,"F","2013-11-02","2014-01-23",83,"Xanomeline High Dose","Xanomeline High Dose",81,"Time to First Dermatologic Event","TTDE",13.0,"2013-11-02","2013-11-14",0.0,"Dematologic Event Occured","ADAE","ASTDT",1,"Y"],["CDISCPILOT01","705","01-705-1349",86,">80",3,"WHITE",1,"F","2013-03-10","2013-09-08",183,"Placebo","Placebo",0,"Time to First Dermatologic Event","TTDE",183.0,"2013-03-10","2013-09-08",1.0,"Study Completion Date","ADSL","RFENDT",null,"Y"],["CDISCPILOT01","705","01-705-1377",63,"<65",1,"BLACK OR AFRICAN AMERICAN",2,"F","2014-01-04","2014-03-07",63,"Xanomeline High Dose","Xanomeline High Dose",81,"Time to First Dermatologic Event","TTDE",63.0,"2014-01-04","2014-03-07",1.0,"Study Completion Date","ADSL","RFENDT",null,"Y"],["CDISCPILOT01","705","01-705-1382",82,">80",3,"WHITE",1,"M","2013-05-13","2013-05-13",1,"Xanomeline High Dose","Xanomeline High Dose",81,"Time to First Dermatologic Event","TTDE",1.0,"2013-05-13","2013-05-13",1.0,"Study Completion Date","ADSL","RFENDT",null,"Y"],["CDISCPILOT01","705","01-705-1393",84,">80",3,"WHITE",1,"F","2012-09-07","2013-02-01",148,"Xanomeline Low Dose","Xanomeline Low Dose",54,"Time to First Dermatologic Event","TTDE",167.0,"2012-09-07","2013-02-20",1.0,"Study Completion Date","ADSL","RFENDT",null,"Y"],["CDISCPILOT01","705","01-705-1431",68,"65-80",2,"WHITE",1,"F","2013-06-23","2013-12-19",180,"Xanomeline Low Dose","Xanomeline Low Dose",54,"Time to First Dermatologic Event","TTDE",180.0,"2013-06-23","2013-12-19",1.0,"Study Completion Date","ADSL","RFENDT",null,"Y"],["CDISCPILOT01","706","01-706-1041",64,"<65",1,"BLACK OR AFRICAN AMERICAN",2,"F","2013-12-31","2014-07-28",210,"Placebo","Placebo",0,"Time to First Dermatologic Event","TTDE",64.0,"2013-12-31","2014-03-04",0.0,"Dematologic Event Occured","ADAE","ASTDT",6,"Y"],["CDISCPILOT01","706","01-706-1049",60,"<65",1,"WHITE",1,"F","2013-05-14","2013-06-18",36,"Xanomeline High Dose","Xanomeline High Dose",81,"Time to First Dermatologic Event","TTDE",43.0,"2013-05-14","2013-06-25",1.0,"Study Completion Date","ADSL","RFENDT",null,"Y"],["CDISCPILOT01","706","01-706-1384",74,"65-80",2,"WHITE",1,"F","2012-09-15","2012-09-24",10,"Xanomeline Low Dose","Xanomeline Low Dose",54,"Time to First Dermatologic Event","TTDE",1.0,"2012-09-15","2012-09-15",0.0,"Dematologic Event Occured","ADAE","ASTDT",1,"Y"],["CDISCPILOT01","707","01-707-1037",72,"65-80",2,"WHITE",1,"F","2013-12-20","2013-12-24",5,"Xanomeline Low Dose","Xanomeline Low Dose",54,"Time to First Dermatologic Event","TTDE",20.0,"2013-12-20","2014-01-08",1.0,"Study Completion Date","ADSL","RFENDT",null,"Y"],["CDISCPILOT01","707","01-707-1206",65,"65-80",2,"WHITE",1,"M","2013-10-28","2014-04-26",181,"Placebo","Placebo",0,"Time to First Dermatologic Event","TTDE",182.0,"2013-10-28","2014-04-27",1.0,"Study Completion Date","ADSL","RFENDT",null,"Y"],["CDISCPILOT01","708","01-708-1019",68,"65-80",2,"WHITE",1,"M","2013-12-20","2014-01-01",13,"Xanomeline Low Dose","Xanomeline Low Dose",54,"Time to First Dermatologic Event","TTDE",35.0,"2013-12-20","2014-01-23",1.0,"Study Completion Date","ADSL","RFENDT",null,"Y"],["CDISCPILOT01","708","01-708-1032",62,"<65",1,"WHITE",1,"M","2013-02-09","2013-03-01",21,"Xanomeline Low Dose","Xanomeline Low Dose",54,"Time to First Dermatologic Event","TTDE",18.0,"2013-02-09","2013-02-26",0.0,"Dematologic Event Occured","ADAE","ASTDT",1,"Y"],["CDISCPILOT01","708","01-708-1084",73,"65-80",2,"WHITE",1,"F","2013-05-09","2013-11-11",187,"Xanomeline Low Dose","Xanomeline Low Dose",54,"Time to First Dermatologic Event","TTDE",187.0,"2013-05-09","2013-11-11",1.0,"Study Completion Date","ADSL","RFENDT",null,"Y"],["CDISCPILOT01","708","01-708-1087",74,"65-80",2,"WHITE",1,"F","2012-10-22","2013-04-28",189,"Placebo","Placebo",0,"Time to First Dermatologic Event","TTDE",189.0,"2012-10-22","2013-04-28",1.0,"Study Completion Date","ADSL","RFENDT",null,"Y"],["CDISCPILOT01","708","01-708-1158",81,">80",3,"WHITE",1,"F","2014-02-08","2014-03-21",42,"Placebo","Placebo",0,"Time to First Dermatologic Event","TTDE",43.0,"2014-02-08","2014-03-22",0.0,"Dematologic Event Occured","ADAE","ASTDT",2,"Y"],["CDISCPILOT01","708","01-708-1171",77,"65-80",2,"WHITE",1,"F","2012-12-06","2013-06-04",181,"Placebo","Placebo",0,"Time to First Dermatologic Event","TTDE",181.0,"2012-12-06","2013-06-04",1.0,"Study Completion Date","ADSL","RFENDT",null,"Y"],["CDISCPILOT01","708","01-708-1178",77,"65-80",2,"BLACK OR AFRICAN AMERICAN",2,"F","2013-12-29","2014-04-06",99,"Xanomeline High Dose","Xanomeline High Dose",81,"Time to First Dermatologic Event","TTDE",71.0,"2013-12-29","2014-03-09",0.0,"Dematologic Event Occured","ADAE","ASTDT",3,"Y"],["CDISCPILOT01","708","01-708-1213",76,"65-80",2,"WHITE",1,"F","2013-02-09","2013-02-22",14,"Xanomeline High Dose","Xanomeline High Dose",81,"Time to First Dermatologic Event","TTDE",18.0,"2013-02-09","2013-02-26",1.0,"Study Completion Date","ADSL","RFENDT",null,"Y"],["CDISCPILOT01","708","01-708-1216",78,"65-80",2,"WHITE",1,"M","2012-10-24","2012-11-29",37,"Xanomeline High Dose","Xanomeline High Dose",81,"Time to First Dermatologic Event","TTDE",14.0,"2012-10-24","2012-11-06",0.0,"Dematologic Event Occured","ADAE","ASTDT",1,"Y"],["CDISCPILOT01","708","01-708-1236",86,">80",3,"WHITE",1,"F","2013-09-21","2013-09-21",1,"Xanomeline High Dose","Xanomeline High Dose",81,"Time to First Dermatologic Event","TTDE",6.0,"2013-09-21","2013-09-26",1.0,"Study Completion Date","ADSL","RFENDT",null,"Y"],["CDISCPILOT01","708","01-708-1253",61,"<65",1,"WHITE",1,"M","2013-05-07","2013-11-05",183,"Placebo","Placebo",0,"Time to First Dermatologic Event","TTDE",183.0,"2013-05-07","2013-11-05",1.0,"Study Completion Date","ADSL","RFENDT",null,"Y"],["CDISCPILOT01","708","01-708-1272",82,">80",3,"WHITE",1,"M","2013-02-06","2013-03-22",45,"Xanomeline Low Dose","Xanomeline Low Dose",54,"Time to First Dermatologic Event","TTDE",22.0,"2013-02-06","2013-02-27",0.0,"Dematologic Event Occured","ADAE","ASTDT",4,"Y"],["CDISCPILOT01","708","01-708-1286",80,"65-80",2,"BLACK OR AFRICAN AMERICAN",2,"F","2013-09-10","2014-03-08",180,"Placebo","Placebo",0,"Time to First Dermatologic Event","TTDE",3.0,"2013-09-10","2013-09-12",0.0,"Dematologic Event Occured","ADAE","ASTDT",1,"Y"],["CDISCPILOT01","708","01-708-1296",57,"<65",1,"BLACK OR AFRICAN AMERICAN",2,"M","2013-06-14","2013-12-12",182,"Placebo","Placebo",0,"Time to First Dermatologic Event","TTDE",83.0,"2013-06-14","2013-09-04",0.0,"Dematologic Event Occured","ADAE","ASTDT",3,"Y"],["CDISCPILOT01","708","01-708-1297",61,"<65",1,"WHITE",1,"M","2013-01-25","2013-05-03",99,"Xanomeline Low Dose","Xanomeline Low Dose",54,"Time to First Dermatologic Event","TTDE",68.0,"2013-01-25","2013-04-02",0.0,"Dematologic Event Occured","ADAE","ASTDT",1,"Y"],["CDISCPILOT01","708","01-708-1316",74,"65-80",2,"WHITE",1,"F","2013-08-23","2014-03-01",191,"Placebo","Placebo",0,"Time to First Dermatologic Event","TTDE",177.0,"2013-08-23","2014-02-15",0.0,"Dematologic Event Occured","ADAE","ASTDT",2,"Y"],["CDISCPILOT01","708","01-708-1336",73,"65-80",2,"WHITE",1,"M","2012-12-07","2013-06-05",181,"Xanomeline High Dose","Xanomeline High Dose",81,"Time to First Dermatologic Event","TTDE",37.0,"2012-12-07","2013-01-12",0.0,"Dematologic Event Occured","ADAE","ASTDT",2,"Y"],["CDISCPILOT01","708","01-708-1342",59,"<65",1,"WHITE",1,"F","2012-12-29","2013-06-28",182,"Placebo","Placebo",0,"Time to First Dermatologic Event","TTDE",182.0,"2012-12-29","2013-06-28",1.0,"Study Completion Date","ADSL","RFENDT",null,"Y"],["CDISCPILOT01","708","01-708-1347",61,"<65",1,"WHITE",1,"F","2013-04-20","2013-06-18",60,"Xanomeline High Dose","Xanomeline High Dose",81,"Time to First Dermatologic Event","TTDE",55.0,"2013-04-20","2013-06-13",0.0,"Dematologic Event Occured","ADAE","ASTDT",1,"Y"],["CDISCPILOT01","708","01-708-1348",79,"65-80",2,"WHITE",1,"F","2013-08-05","2014-02-13",193,"Xanomeline Low Dose","Xanomeline Low Dose",54,"Time to First Dermatologic Event","TTDE",119.0,"2013-08-05","2013-12-01",0.0,"Dematologic Event Occured","ADAE","ASTDT",3,"Y"],["CDISCPILOT01","708","01-708-1353",87,">80",3,"BLACK OR AFRICAN AMERICAN",2,"F","2013-07-04","2013-08-28",56,"Xanomeline Low Dose","Xanomeline Low Dose",54,"Time to First Dermatologic Event","TTDE",69.0,"2013-07-04","2013-09-10",1.0,"Study Completion Date","ADSL","RFENDT",null,"Y"],["CDISCPILOT01","708","01-708-1372",84,">80",3,"WHITE",1,"M","2013-04-12","2013-04-19",8,"Xanomeline High Dose","Xanomeline High Dose",81,"Time to First Dermatologic Event","TTDE",29.0,"2013-04-12","2013-05-10",1.0,"Study Completion Date","ADSL","RFENDT",null,"Y"],["CDISCPILOT01","708","01-708-1378",67,"65-80",2,"BLACK OR AFRICAN AMERICAN",2,"M","2013-09-03","2014-01-28",148,"Placebo","Placebo",0,"Time to First Dermatologic Event","TTDE",148.0,"2013-09-03","2014-01-28",1.0,"Study Completion Date","ADSL","RFENDT",null,"Y"],["CDISCPILOT01","708","01-708-1406",71,"65-80",2,"WHITE",1,"F","2013-12-26","2014-07-02",189,"Xanomeline High Dose","Xanomeline High Dose",81,"Time to First Dermatologic Event","TTDE",189.0,"2013-12-26","2014-07-02",1.0,"Study Completion Date","ADSL","RFENDT",null,"Y"],["CDISCPILOT01","708","01-708-1428",84,">80",3,"WHITE",1,"F","2013-11-09","2013-12-14",36,"Xanomeline Low Dose","Xanomeline Low Dose",54,"Time to First Dermatologic Event","TTDE",32.0,"2013-11-09","2013-12-10",0.0,"Dematologic Event Occured","ADAE","ASTDT",2,"Y"],["CDISCPILOT01","709","01-709-1001",76,"65-80",2,"WHITE",1,"F","2013-10-08","2014-04-08",183,"Placebo","Placebo",0,"Time to First Dermatologic Event","TTDE",183.0,"2013-10-08","2014-04-08",1.0,"Study Completion Date","ADSL","RFENDT",null,"Y"],["CDISCPILOT01","709","01-709-1007",54,"<65",1,"WHITE",1,"F","2012-07-31","2012-08-28",29,"Xanomeline Low Dose","Xanomeline Low Dose",54,"Time to First Dermatologic Event","TTDE",17.0,"2012-07-31","2012-08-16",0.0,"Dematologic Event Occured","ADAE","ASTDT",1,"Y"],["CDISCPILOT01","709","01-709-1020",72,"65-80",2,"WHITE",1,"F","2012-12-01","2013-06-01",183,"Xanomeline Low Dose","Xanomeline Low Dose",54,"Time to First Dermatologic Event","TTDE",27.0,"2012-12-01","2012-12-27",0.0,"Dematologic Event Occured","ADAE","ASTDT",1,"Y"],["CDISCPILOT01","709","01-709-1029",82,">80",3,"WHITE",1,"M","2012-12-25","2013-06-26",184,"Xanomeline High Dose","Xanomeline High Dose",81,"Time to First Dermatologic Event","TTDE",24.0,"2012-12-25","2013-01-17",0.0,"Dematologic Event Occured","ADAE","ASTDT",2,"Y"],["CDISCPILOT01","709","01-709-1081",86,">80",3,"WHITE",1,"F","2014-01-18","2014-04-27",100,"Xanomeline Low Dose","Xanomeline Low Dose",54,"Time to First Dermatologic Event","TTDE",80.0,"2014-01-18","2014-04-07",0.0,"Dematologic Event Occured","ADAE","ASTDT",1,"Y"],["CDISCPILOT01","709","01-709-1088",69,"65-80",2,"WHITE",1,"M","2014-04-12","2014-10-09",181,"Placebo","Placebo",0,"Time to First Dermatologic Event","TTDE",27.0,"2014-04-12","2014-05-08",0.0,"Dematologic Event Occured","ADAE","ASTDT",1,"Y"],["CDISCPILOT01","709","01-709-1099",79,"65-80",2,"WHITE",1,"F","2013-10-25","2014-04-25",183,"Xanomeline High Dose","Xanomeline High Dose",81,"Time to First Dermatologic Event","TTDE",19.0,"2013-10-25","2013-11-12",0.0,"Dematologic Event Occured","ADAE","ASTDT",2,"Y"],["CDISCPILOT01","709","01-709-1102",71,"65-80",2,"WHITE",1,"F","2013-01-15","2013-03-27",72,"Xanomeline Low Dose","Xanomeline Low Dose",54,"Time to First Dermatologic Event","TTDE",28.0,"2013-01-15","2013-02-11",0.0,"Dematologic Event Occured","ADAE","ASTDT",1,"Y"],["CDISCPILOT01","709","01-709-1168",72,"65-80",2,"WHITE",1,"F","2013-08-02","2013-09-26",56,"Xanomeline High Dose","Xanomeline High Dose",81,"Time to First Dermatologic Event","TTDE",16.0,"2013-08-02","2013-08-17",0.0,"Dematologic Event Occured","ADAE","ASTDT",1,"Y"],["CDISCPILOT01","709","01-709-1217",77,"65-80",2,"WHITE",1,"M","2013-03-04","2013-06-11",100,"Xanomeline Low Dose","Xanomeline Low Dose",54,"Time to First Dermatologic Event","TTDE",23.0,"2013-03-04","2013-03-26",0.0,"Dematologic Event Occured","ADAE","ASTDT",3,"Y"],["CDISCPILOT01","709","01-709-1238",69,"65-80",2,"WHITE",1,"M","2013-05-15","2013-08-06",84,"Xanomeline High Dose","Xanomeline High Dose",81,"Time to First Dermatologic Event","TTDE",16.0,"2013-05-15","2013-05-30",0.0,"Dematologic Event Occured","ADAE","ASTDT",2,"Y"],["CDISCPILOT01","709","01-709-1259",82,">80",3,"WHITE",1,"M","2013-01-26","2013-06-13",139,"Placebo","Placebo",0,"Time to First Dermatologic Event","TTDE",139.0,"2013-01-26","2013-06-13",1.0,"Study Completion Date","ADSL","RFENDT",null,"Y"],["CDISCPILOT01","709","01-709-1285",87,">80",3,"WHITE",1,"M","2013-03-24","2013-05-23",61,"Xanomeline Low Dose","Xanomeline Low Dose",54,"Time to First Dermatologic Event","TTDE",27.0,"2013-03-24","2013-04-19",0.0,"Dematologic Event Occured","ADAE","ASTDT",2,"Y"],["CDISCPILOT01","709","01-709-1301",62,"<65",1,"WHITE",1,"F","2013-07-19","2014-01-17",183,"Placebo","Placebo",0,"Time to First Dermatologic Event","TTDE",183.0,"2013-07-19","2014-01-17",1.0,"Study Completion Date","ADSL","RFENDT",null,"Y"],["CDISCPILOT01","709","01-709-1306",60,"<65",1,"WHITE",1,"F","2014-02-03","2014-06-16",134,"Placebo","Placebo",0,"Time to First Dermatologic Event","TTDE",77.0,"2014-02-03","2014-04-20",0.0,"Dematologic Event Occured","ADAE","ASTDT",1,"Y"],["CDISCPILOT01","709","01-709-1309",65,"65-80",2,"WHITE",1,"M","2013-06-19","2013-12-19",184,"Xanomeline High Dose","Xanomeline High Dose",81,"Time to First Dermatologic Event","TTDE",2.0,"2013-06-19","2013-06-20",0.0,"Dematologic Event Occured","ADAE","ASTDT",7,"Y"],["CDISCPILOT01","709","01-709-1312",68,"65-80",2,"WHITE",1,"F","2014-04-20","2014-10-19",183,"Placebo","Placebo",0,"Time to First Dermatologic Event","TTDE",28.0,"2014-04-20","2014-05-17",0.0,"Dematologic Event Occured","ADAE","ASTDT",1,"Y"],["CDISCPILOT01","709","01-709-1326",75,"65-80",2,"WHITE",1,"F","2013-04-05","2013-10-02",181,"Xanomeline Low Dose","Xanomeline Low Dose",54,"Time to First Dermatologic Event","TTDE",27.0,"2013-04-05","2013-05-01",0.0,"Dematologic Event Occured","ADAE","ASTDT",1,"Y"],["CDISCPILOT01","709","01-709-1329",70,"65-80",2,"WHITE",1,"M","2013-08-15","2013-08-25",11,"Xanomeline High Dose","Xanomeline High Dose",81,"Time to First Dermatologic Event","TTDE",15.0,"2013-08-15","2013-08-29",1.0,"Study Completion Date","ADSL","RFENDT",null,"Y"],["CDISCPILOT01","709","01-709-1339",81,">80",3,"WHITE",1,"M","2012-12-23","2013-06-24",184,"Placebo","Placebo",0,"Time to First Dermatologic Event","TTDE",184.0,"2012-12-23","2013-06-24",1.0,"Study Completion Date","ADSL","RFENDT",null,"Y"],["CDISCPILOT01","709","01-709-1424",77,"65-80",2,"WHITE",1,"M","2013-03-03","2013-03-07",5,"Xanomeline High Dose","Xanomeline High Dose",81,"Time to First Dermatologic Event","TTDE",6.0,"2013-03-03","2013-03-08",1.0,"Study Completion Date","ADSL","RFENDT",null,"Y"],["CDISCPILOT01","710","01-710-1002",88,">80",3,"WHITE",1,"M","2014-01-14","2014-01-18",5,"Xanomeline Low Dose","Xanomeline Low Dose",54,"Time to First Dermatologic Event","TTDE",5.0,"2014-01-14","2014-01-18",1.0,"Study Completion Date","ADSL","RFENDT",null,"Y"],["CDISCPILOT01","710","01-710-1006",77,"65-80",2,"WHITE",1,"M","2013-02-10","2013-08-09",181,"Xanomeline High Dose","Xanomeline High Dose",81,"Time to First Dermatologic Event","TTDE",20.0,"2013-02-10","2013-03-01",0.0,"Dematologic Event Occured","ADAE","ASTDT",3,"Y"],["CDISCPILOT01","710","01-710-1021",79,"65-80",2,"BLACK OR AFRICAN AMERICAN",2,"M","2013-09-27","2013-10-29",33,"Xanomeline High Dose","Xanomeline High Dose",81,"Time to First Dermatologic Event","TTDE",25.0,"2013-09-27","2013-10-21",0.0,"Dematologic Event Occured","ADAE","ASTDT",2,"Y"],["CDISCPILOT01","710","01-710-1027",83,">80",3,"WHITE",1,"M","2014-02-28","2014-08-29",183,"Placebo","Placebo",0,"Time to First Dermatologic Event","TTDE",183.0,"2014-02-28","2014-08-29",1.0,"Study Completion Date","ADSL","RFENDT",null,"Y"],["CDISCPILOT01","710","01-710-1045",83,">80",3,"WHITE",1,"F","2013-06-03","2013-08-13",72,"Xanomeline Low Dose","Xanomeline Low Dose",54,"Time to First Dermatologic Event","TTDE",30.0,"2013-06-03","2013-07-02",0.0,"Dematologic Event Occured","ADAE","ASTDT",3,"Y"],["CDISCPILOT01","710","01-710-1053",84,">80",3,"WHITE",1,"F","2012-12-26","2013-02-10",47,"Xanomeline Low Dose","Xanomeline Low Dose",54,"Time to First Dermatologic Event","TTDE",34.0,"2012-12-26","2013-01-28",0.0,"Dematologic Event Occured","ADAE","ASTDT",1,"Y"],["CDISCPILOT01","710","01-710-1060",82,">80",3,"WHITE",1,"M","2013-01-01","2013-07-05",186,"Placebo","Placebo",0,"Time to First Dermatologic Event","TTDE",21.0,"2013-01-01","2013-01-21",0.0,"Dematologic Event Occured","ADAE","ASTDT",4,"Y"],["CDISCPILOT01","710","01-710-1070",85,">80",3,"WHITE",1,"F","2012-09-08","2013-01-22",137,"Xanomeline High Dose","Xanomeline High Dose",81,"Time to First Dermatologic Event","TTDE",96.0,"2012-09-08","2012-12-12",0.0,"Dematologic Event Occured","ADAE","ASTDT",2,"Y"],["CDISCPILOT01","710","01-710-1077",76,"65-80",2,"WHITE",1,"F","2013-11-17","2014-05-18",183,"Placebo","Placebo",0,"Time to First Dermatologic Event","TTDE",26.0,"2013-11-17","2013-12-12",0.0,"Dematologic Event Occured","ADAE","ASTDT",1,"Y"],["CDISCPILOT01","710","01-710-1078",81,">80",3,"WHITE",1,"F","2013-09-17","2014-03-23",188,"Placebo","Placebo",0,"Time to First Dermatologic Event","TTDE",188.0,"2013-09-17","2014-03-23",1.0,"Study Completion Date","ADSL","RFENDT",null,"Y"],["CDISCPILOT01","710","01-710-1083",89,">80",3,"WHITE",1,"F","2013-07-22","2013-08-01",11,"Placebo","Placebo",0,"Time to First Dermatologic Event","TTDE",13.0,"2013-07-22","2013-08-03",1.0,"Study Completion Date","ADSL","RFENDT",null,"Y"],["CDISCPILOT01","710","01-710-1137",79,"65-80",2,"BLACK OR AFRICAN AMERICAN",2,"F","2013-10-11","2013-11-13",34,"Xanomeline High Dose","Xanomeline High Dose",81,"Time to First Dermatologic Event","TTDE",3.0,"2013-10-11","2013-10-13",0.0,"Dematologic Event Occured","ADAE","ASTDT",1,"Y"],["CDISCPILOT01","710","01-710-1142",76,"65-80",2,"WHITE",1,"F","2012-10-02","2012-10-20",19,"Xanomeline High Dose","Xanomeline High Dose",81,"Time to First Dermatologic Event","TTDE",22.0,"2012-10-02","2012-10-23",1.0,"Study Completion Date","ADSL","RFENDT",null,"Y"],["CDISCPILOT01","710","01-710-1154",84,">80",3,"WHITE",1,"M","2014-03-29","2014-04-27",30,"Xanomeline Low Dose","Xanomeline Low Dose",54,"Time to First Dermatologic Event","TTDE",21.0,"2014-03-29","2014-04-18",0.0,"Dematologic Event Occured","ADAE","ASTDT",1,"Y"],["CDISCPILOT01","710","01-710-1166",81,">80",3,"WHITE",1,"F","2012-11-30","2013-03-19",110,"Xanomeline Low Dose","Xanomeline Low Dose",54,"Time to First Dermatologic Event","TTDE",121.0,"2012-11-30","2013-03-30",1.0,"Study Completion Date","ADSL","RFENDT",null,"Y"],["CDISCPILOT01","710","01-710-1183",80,"65-80",2,"WHITE",1,"F","2013-11-16","2014-05-17",183,"Placebo","Placebo",0,"Time to First Dermatologic Event","TTDE",183.0,"2013-11-16","2014-05-17",1.0,"Study Completion Date","ADSL","RFENDT",null,"Y"],["CDISCPILOT01","710","01-710-1187",78,"65-80",2,"WHITE",1,"F","2012-11-10","2013-05-12",184,"Xanomeline High Dose","Xanomeline High Dose",81,"Time to First Dermatologic Event","TTDE",44.0,"2012-11-10","2012-12-23",0.0,"Dematologic Event Occured","ADAE","ASTDT",1,"Y"],["CDISCPILOT01","710","01-710-1235",56,"<65",1,"WHITE",1,"F","2012-09-26","2013-03-27",183,"Xanomeline Low Dose","Xanomeline Low Dose",54,"Time to First Dermatologic Event","TTDE",126.0,"2012-09-26","2013-01-29",0.0,"Dematologic Event Occured","ADAE","ASTDT",3,"Y"],["CDISCPILOT01","710","01-710-1249",79,"65-80",2,"WHITE",1,"M","2013-12-28","2014-06-28",183,"Xanomeline High Dose","Xanomeline High Dose",81,"Time to First Dermatologic Event","TTDE",46.0,"2013-12-28","2014-02-11",0.0,"Dematologic Event Occured","ADAE","ASTDT",1,"Y"],["CDISCPILOT01","710","01-710-1264",78,"65-80",2,"WHITE",1,"M","2013-06-13","2013-10-11",121,"Placebo","Placebo",0,"Time to First Dermatologic Event","TTDE",70.0,"2013-06-13","2013-08-21",0.0,"Dematologic Event Occured","ADAE","ASTDT",2,"Y"],["CDISCPILOT01","710","01-710-1270",83,">80",3,"WHITE",1,"F","2014-02-12","2014-03-01",18,"Xanomeline Low Dose","Xanomeline Low Dose",54,"Time to First Dermatologic Event","TTDE",12.0,"2014-02-12","2014-02-23",0.0,"Dematologic Event Occured","ADAE","ASTDT",1,"Y"],["CDISCPILOT01","710","01-710-1271",86,">80",3,"WHITE",1,"F","2012-09-27","2012-11-21",56,"Placebo","Placebo",0,"Time to First Dermatologic Event","TTDE",67.0,"2012-09-27","2012-12-02",1.0,"Study Completion Date","ADSL","RFENDT",null,"Y"],["CDISCPILOT01","710","01-710-1278",81,">80",3,"WHITE",1,"M","2012-12-24","2013-02-26",65,"Xanomeline High Dose","Xanomeline High Dose",81,"Time to First Dermatologic Event","TTDE",46.0,"2012-12-24","2013-02-07",0.0,"Dematologic Event Occured","ADAE","ASTDT",2,"Y"],["CDISCPILOT01","710","01-710-1300",78,"65-80",2,"WHITE",1,"F","2012-12-15","2013-02-15",63,"Xanomeline Low Dose","Xanomeline Low Dose",54,"Time to First Dermatologic Event","TTDE",48.0,"2012-12-15","2013-01-31",0.0,"Dematologic Event Occured","ADAE","ASTDT",1,"Y"],["CDISCPILOT01","710","01-710-1314",78,"65-80",2,"WHITE",1,"F","2013-04-24","2013-05-23",30,"Placebo","Placebo",0,"Time to First Dermatologic Event","TTDE",32.0,"2013-04-24","2013-05-25",1.0,"Study Completion Date","ADSL","RFENDT",null,"Y"],["CDISCPILOT01","710","01-710-1315",83,">80",3,"WHITE",1,"F","2013-02-27","2013-07-06",130,"Placebo","Placebo",0,"Time to First Dermatologic Event","TTDE",77.0,"2013-02-27","2013-05-14",0.0,"Dematologic Event Occured","ADAE","ASTDT",2,"Y"],["CDISCPILOT01","710","01-710-1354",73,"65-80",2,"WHITE",1,"M","2012-11-11","2013-05-01",172,"Xanomeline High Dose","Xanomeline High Dose",81,"Time to First Dermatologic Event","TTDE",50.0,"2012-11-11","2012-12-30",0.0,"Dematologic Event Occured","ADAE","ASTDT",1,"Y"],["CDISCPILOT01","710","01-710-1358",82,">80",3,"WHITE",1,"M","2012-09-17","2013-02-09",146,"Xanomeline Low Dose","Xanomeline Low Dose",54,"Time to First Dermatologic Event","TTDE",97.0,"2012-09-17","2012-12-22",0.0,"Dematologic Event Occured","ADAE","ASTDT",1,"Y"],["CDISCPILOT01","710","01-710-1368",88,">80",3,"WHITE",1,"F","2013-10-23","2014-04-24",184,"Placebo","Placebo",0,"Time to First Dermatologic Event","TTDE",184.0,"2013-10-23","2014-04-24",1.0,"Study Completion Date","ADSL","RFENDT",null,"Y"],["CDISCPILOT01","710","01-710-1385",77,"65-80",2,"WHITE",1,"M","2012-10-29","2013-02-18",113,"Xanomeline Low Dose","Xanomeline Low Dose",54,"Time to First Dermatologic Event","TTDE",51.0,"2012-10-29","2012-12-18",0.0,"Dematologic Event Occured","ADAE","ASTDT",4,"Y"],["CDISCPILOT01","710","01-710-1408",80,"65-80",2,"WHITE",1,"M","2013-01-05","2013-07-12",189,"Xanomeline High Dose","Xanomeline High Dose",81,"Time to First Dermatologic Event","TTDE",51.0,"2013-01-05","2013-02-24",0.0,"Dematologic Event Occured","ADAE","ASTDT",3,"Y"],["CDISCPILOT01","711","01-711-1012",67,"65-80",2,"WHITE",1,"F","2013-04-03","2013-04-29",27,"Xanomeline High Dose","Xanomeline High Dose",81,"Time to First Dermatologic Event","TTDE",14.0,"2013-04-03","2013-04-16",0.0,"Dematologic Event Occured","ADAE","ASTDT",1,"Y"],["CDISCPILOT01","711","01-711-1036",70,"65-80",2,"BLACK OR AFRICAN AMERICAN",2,"M","2012-07-29","2013-02-10",197,"Placebo","Placebo",0,"Time to First Dermatologic Event","TTDE",197.0,"2012-07-29","2013-02-10",1.0,"Study Completion Date","ADSL","RFENDT",null,"Y"],["CDISCPILOT01","711","01-711-1143",76,"65-80",2,"WHITE",1,"F","2013-04-03","2013-05-30",58,"Xanomeline Low Dose","Xanomeline Low Dose",54,"Time to First Dermatologic Event","TTDE",46.0,"2013-04-03","2013-05-18",0.0,"Dematologic Event Occured","ADAE","ASTDT",8,"Y"],["CDISCPILOT01","711","01-711-1433",84,">80",3,"WHITE",1,"F","2013-01-27","2013-02-05",10,"Xanomeline High Dose","Xanomeline High Dose",81,"Time to First Dermatologic Event","TTDE",11.0,"2013-01-27","2013-02-06",1.0,"Study Completion Date","ADSL","RFENDT",null,"Y"],["CDISCPILOT01","713","01-713-1043",78,"65-80",2,"WHITE",1,"F","2013-09-15","2014-03-24",191,"Xanomeline Low Dose","Xanomeline Low Dose",54,"Time to First Dermatologic Event","TTDE",12.0,"2013-09-15","2013-09-26",0.0,"Dematologic Event Occured","ADAE","ASTDT",1,"Y"],["CDISCPILOT01","713","01-713-1073",74,"65-80",2,"BLACK OR AFRICAN AMERICAN",2,"F","2014-03-30","2014-10-05",190,"Xanomeline Low Dose","Xanomeline Low Dose",54,"Time to First Dermatologic Event","TTDE",107.0,"2014-03-30","2014-07-14",0.0,"Dematologic Event Occured","ADAE","ASTDT",1,"Y"],["CDISCPILOT01","713","01-713-1106",74,"65-80",2,"WHITE",1,"M","2012-10-31","2013-05-06",188,"Xanomeline High Dose","Xanomeline High Dose",81,"Time to First Dermatologic Event","TTDE",188.0,"2012-10-31","2013-05-06",1.0,"Study Completion Date","ADSL","RFENDT",null,"Y"],["CDISCPILOT01","713","01-713-1141",79,"65-80",2,"WHITE",1,"M","2013-05-31","2013-07-01",32,"Xanomeline High Dose","Xanomeline High Dose",81,"Time to First Dermatologic Event","TTDE",22.0,"2013-05-31","2013-06-21",0.0,"Dematologic Event Occured","ADAE","ASTDT",1,"Y"],["CDISCPILOT01","713","01-713-1179",64,"<65",1,"WHITE",1,"F","2013-08-09","2014-02-05",181,"Placebo","Placebo",0,"Time to First Dermatologic Event","TTDE",181.0,"2013-08-09","2014-02-05",1.0,"Study Completion Date","ADSL","RFENDT",null,"Y"],["CDISCPILOT01","713","01-713-1209",77,"65-80",2,"WHITE",1,"F","2013-05-27","2013-11-22",180,"Xanomeline High Dose","Xanomeline High Dose",81,"Time to First Dermatologic Event","TTDE",7.0,"2013-05-27","2013-06-02",0.0,"Dematologic Event Occured","ADAE","ASTDT",2,"Y"],["CDISCPILOT01","713","01-713-1256",71,"65-80",2,"WHITE",1,"M","2012-09-19","2013-03-25",188,"Placebo","Placebo",0,"Time to First Dermatologic Event","TTDE",42.0,"2012-09-19","2012-10-30",0.0,"Dematologic Event Occured","ADAE","ASTDT",1,"Y"],["CDISCPILOT01","713","01-713-1269",73,"65-80",2,"WHITE",1,"M","2014-01-27","2014-07-28",183,"Placebo","Placebo",0,"Time to First Dermatologic Event","TTDE",7.0,"2014-01-27","2014-02-02",0.0,"Dematologic Event Occured","ADAE","ASTDT",1,"Y"],["CDISCPILOT01","713","01-713-1448",71,"65-80",2,"WHITE",1,"F","2014-01-19","2014-05-16",118,"Xanomeline Low Dose","Xanomeline Low Dose",54,"Time to First Dermatologic Event","TTDE",60.0,"2014-01-19","2014-03-19",0.0,"Dematologic Event Occured","ADAE","ASTDT",1,"Y"],["CDISCPILOT01","714","01-714-1035",88,">80",3,"WHITE",1,"F","2014-04-17","2014-10-16",183,"Placebo","Placebo",0,"Time to First Dermatologic Event","TTDE",183.0,"2014-04-17","2014-10-16",1.0,"Study Completion Date","ADSL","RFENDT",null,"Y"],["CDISCPILOT01","714","01-714-1068",79,"65-80",2,"WHITE",1,"F","2013-08-08","2013-10-08",62,"Xanomeline Low Dose","Xanomeline Low Dose",54,"Time to First Dermatologic Event","TTDE",5.0,"2013-08-08","2013-08-12",0.0,"Dematologic Event Occured","ADAE","ASTDT",1,"Y"],["CDISCPILOT01","714","01-714-1195",75,"65-80",2,"WHITE",1,"M","2013-04-26","2013-10-23",181,"Xanomeline Low Dose","Xanomeline Low Dose",54,"Time to First Dermatologic Event","TTDE",18.0,"2013-04-26","2013-05-13",0.0,"Dematologic Event Occured","ADAE","ASTDT",3,"Y"],["CDISCPILOT01","714","01-714-1288",77,"65-80",2,"BLACK OR AFRICAN AMERICAN",2,"M","2013-12-04","2014-06-17",196,"Xanomeline High Dose","Xanomeline High Dose",81,"Time to First Dermatologic Event","TTDE",39.0,"2013-12-04","2014-01-11",0.0,"Dematologic Event Occured","ADAE","ASTDT",3,"Y"],["CDISCPILOT01","714","01-714-1375",78,"65-80",2,"WHITE",1,"F","2013-02-26","2013-09-07",194,"Placebo","Placebo",0,"Time to First Dermatologic Event","TTDE",33.0,"2013-02-26","2013-03-30",0.0,"Dematologic Event Occured","ADAE","ASTDT",1,"Y"],["CDISCPILOT01","714","01-714-1425",81,">80",3,"WHITE",1,"M","2013-08-15","2013-08-19",5,"Xanomeline High Dose","Xanomeline High Dose",81,"Time to First Dermatologic Event","TTDE",8.0,"2013-08-15","2013-08-22",1.0,"Study Completion Date","ADSL","RFENDT",null,"Y"],["CDISCPILOT01","715","01-715-1085",77,"65-80",2,"WHITE",1,"F","2013-02-16","2013-08-18",184,"Xanomeline Low Dose","Xanomeline Low Dose",54,"Time to First Dermatologic Event","TTDE",184.0,"2013-02-16","2013-08-18",1.0,"Study Completion Date","ADSL","RFENDT",null,"Y"],["CDISCPILOT01","715","01-715-1107",65,"65-80",2,"WHITE",1,"M","2013-02-26","2013-05-07",71,"Xanomeline Low Dose","Xanomeline Low Dose",54,"Time to First Dermatologic Event","TTDE",71.0,"2013-02-26","2013-05-07",0.0,"Dematologic Event Occured","ADAE","ASTDT",1,"Y"],["CDISCPILOT01","715","01-715-1155",59,"<65",1,"WHITE",1,"F","2013-12-13","2014-01-25",44,"Placebo","Placebo",0,"Time to First Dermatologic Event","TTDE",135.0,"2013-12-13","2014-04-26",1.0,"Study Completion Date","ADSL","RFENDT",null,"Y"],["CDISCPILOT01","715","01-715-1207",78,"65-80",2,"WHITE",1,"F","2012-11-18","2013-05-27",191,"Placebo","Placebo",0,"Time to First Dermatologic Event","TTDE",196.0,"2012-11-18","2013-06-01",1.0,"Study Completion Date","ADSL","RFENDT",null,"Y"],["CDISCPILOT01","715","01-715-1319",65,"65-80",2,"WHITE",1,"M","2013-02-17","2013-03-05",17,"Xanomeline High Dose","Xanomeline High Dose",81,"Time to First Dermatologic Event","TTDE",30.0,"2013-02-17","2013-03-18",1.0,"Study Completion Date","ADSL","RFENDT",null,"Y"],["CDISCPILOT01","715","01-715-1321",75,"65-80",2,"WHITE",1,"F","2014-02-11","2014-04-21",70,"Xanomeline High Dose","Xanomeline High Dose",81,"Time to First Dermatologic Event","TTDE",70.0,"2014-02-11","2014-04-21",0.0,"Dematologic Event Occured","ADAE","ASTDT",3,"Y"],["CDISCPILOT01","715","01-715-1397",76,"65-80",2,"WHITE",1,"F","2013-04-03","2013-10-02",183,"Placebo","Placebo",0,"Time to First Dermatologic Event","TTDE",184.0,"2013-04-03","2013-10-03",1.0,"Study Completion Date","ADSL","RFENDT",null,"Y"],["CDISCPILOT01","715","01-715-1405",69,"65-80",2,"WHITE",1,"M","2013-07-06","2013-07-07",2,"Xanomeline Low Dose","Xanomeline Low Dose",54,"Time to First Dermatologic Event","TTDE",8.0,"2013-07-06","2013-07-13",1.0,"Study Completion Date","ADSL","RFENDT",null,"Y"],["CDISCPILOT01","716","01-716-1024",87,">80",3,"WHITE",1,"F","2012-07-09","2013-01-20",196,"Placebo","Placebo",0,"Time to First Dermatologic Event","TTDE",196.0,"2012-07-09","2013-01-20",1.0,"Study Completion Date","ADSL","RFENDT",null,"Y"],["CDISCPILOT01","716","01-716-1026",73,"65-80",2,"WHITE",1,"F","2014-04-02","2014-10-16",198,"Placebo","Placebo",0,"Time to First Dermatologic Event","TTDE",16.0,"2014-04-02","2014-04-17",0.0,"Dematologic Event Occured","ADAE","ASTDT",2,"Y"],["CDISCPILOT01","716","01-716-1030",83,">80",3,"WHITE",1,"F","2013-12-28","2014-01-02",6,"Xanomeline High Dose","Xanomeline High Dose",81,"Time to First Dermatologic Event","TTDE",14.0,"2013-12-28","2014-01-10",1.0,"Study Completion Date","ADSL","RFENDT",null,"Y"],["CDISCPILOT01","716","01-716-1044",74,"65-80",2,"WHITE",1,"M","2013-04-27","2013-11-03",191,"Placebo","Placebo",0,"Time to First Dermatologic Event","TTDE",191.0,"2013-04-27","2013-11-03",1.0,"Study Completion Date","ADSL","RFENDT",null,"Y"],["CDISCPILOT01","716","01-716-1063",80,"65-80",2,"WHITE",1,"M","2013-05-09","2013-08-25",109,"Xanomeline Low Dose","Xanomeline Low Dose",54,"Time to First Dermatologic Event","TTDE",57.0,"2013-05-09","2013-07-04",0.0,"Dematologic Event Occured","ADAE","ASTDT",3,"Y"],["CDISCPILOT01","716","01-716-1071",78,"65-80",2,"WHITE",1,"F","2013-06-08","2013-08-01",55,"Xanomeline High Dose","Xanomeline High Dose",81,"Time to First Dermatologic Event","TTDE",55.0,"2013-06-08","2013-08-01",1.0,"Study Completion Date","ADSL","RFENDT",null,"Y"],["CDISCPILOT01","716","01-716-1094",82,">80",3,"WHITE",1,"M","2012-12-19","2013-01-24",37,"Xanomeline Low Dose","Xanomeline Low Dose",54,"Time to First Dermatologic Event","TTDE",39.0,"2012-12-19","2013-01-26",1.0,"Study Completion Date","ADSL","RFENDT",null,"Y"],["CDISCPILOT01","716","01-716-1103",79,"65-80",2,"WHITE",1,"M","2014-03-20","2014-09-20",185,"Xanomeline Low Dose","Xanomeline Low Dose",54,"Time to First Dermatologic Event","TTDE",112.0,"2014-03-20","2014-07-09",0.0,"Dematologic Event Occured","ADAE","ASTDT",1,"Y"],["CDISCPILOT01","716","01-716-1108",86,">80",3,"WHITE",1,"F","2013-02-12","2013-08-10",180,"Placebo","Placebo",0,"Time to First Dermatologic Event","TTDE",79.0,"2013-02-12","2013-05-01",0.0,"Dematologic Event Occured","ADAE","ASTDT",2,"Y"],["CDISCPILOT01","716","01-716-1151",83,">80",3,"WHITE",1,"F","2013-02-01","2013-05-11",100,"Xanomeline Low Dose","Xanomeline Low Dose",54,"Time to First Dermatologic Event","TTDE",43.0,"2013-02-01","2013-03-15",0.0,"Dematologic Event Occured","ADAE","ASTDT",2,"Y"],["CDISCPILOT01","716","01-716-1157",85,">80",3,"WHITE",1,"M","2013-10-02","2014-04-04",185,"Xanomeline Low Dose","Xanomeline Low Dose",54,"Time to First Dermatologic Event","TTDE",24.0,"2013-10-02","2013-10-25",0.0,"Dematologic Event Occured","ADAE","ASTDT",2,"Y"],["CDISCPILOT01","716","01-716-1160",83,">80",3,"WHITE",1,"F","2013-04-05","2013-10-11",190,"Placebo","Placebo",0,"Time to First Dermatologic Event","TTDE",35.0,"2013-04-05","2013-05-09",0.0,"Dematologic Event Occured","ADAE","ASTDT",1,"Y"],["CDISCPILOT01","716","01-716-1167",68,"65-80",2,"WHITE",1,"M","2012-10-08","2013-04-12",187,"Xanomeline Low Dose","Xanomeline Low Dose",54,"Time to First Dermatologic Event","TTDE",41.0,"2012-10-08","2012-11-17",0.0,"Dematologic Event Occured","ADAE","ASTDT",1,"Y"],["CDISCPILOT01","716","01-716-1177",72,"65-80",2,"WHITE",1,"M","2014-09-02","2015-03-05",185,"Placebo","Placebo",0,"Time to First Dermatologic Event","TTDE",185.0,"2014-09-02","2015-03-05",1.0,"Study Completion Date","ADSL","RFENDT",null,"Y"],["CDISCPILOT01","716","01-716-1189",81,">80",3,"WHITE",1,"M","2012-10-09","2013-02-27",142,"Xanomeline High Dose","Xanomeline High Dose",81,"Time to First Dermatologic Event","TTDE",89.0,"2012-10-09","2013-01-05",0.0,"Dematologic Event Occured","ADAE","ASTDT",3,"Y"],["CDISCPILOT01","716","01-716-1229",73,"65-80",2,"WHITE",1,"F","2013-02-20","2013-03-31",40,"Xanomeline High Dose","Xanomeline High Dose",81,"Time to First Dermatologic Event","TTDE",1.0,"2013-02-20","2013-02-20",0.0,"Dematologic Event Occured","ADAE","ASTDT",1,"Y"],["CDISCPILOT01","716","01-716-1298",76,"65-80",2,"WHITE",1,"F","2013-04-08","2013-06-28",82,"Xanomeline Low Dose","Xanomeline Low Dose",54,"Time to First Dermatologic Event","TTDE",15.0,"2013-04-08","2013-04-22",0.0,"Dematologic Event Occured","ADAE","ASTDT",1,"Y"],["CDISCPILOT01","716","01-716-1308",76,"65-80",2,"WHITE",1,"F","2013-08-28","2013-10-07",41,"Placebo","Placebo",0,"Time to First Dermatologic Event","TTDE",24.0,"2013-08-28","2013-09-20",0.0,"Dematologic Event Occured","ADAE","ASTDT",1,"Y"],["CDISCPILOT01","716","01-716-1311",78,"65-80",2,"WHITE",1,"M","2014-05-14","2014-09-21",131,"Xanomeline Low Dose","Xanomeline Low Dose",54,"Time to First Dermatologic Event","TTDE",15.0,"2014-05-14","2014-05-28",0.0,"Dematologic Event Occured","ADAE","ASTDT",1,"Y"],["CDISCPILOT01","716","01-716-1364",84,">80",3,"WHITE",1,"F","2013-07-04","2014-01-09",190,"Xanomeline High Dose","Xanomeline High Dose",81,"Time to First Dermatologic Event","TTDE",46.0,"2013-07-04","2013-08-18",0.0,"Dematologic Event Occured","ADAE","ASTDT",1,"Y"],["CDISCPILOT01","716","01-716-1373",74,"65-80",2,"WHITE",1,"M","2012-12-14","2013-02-27",76,"Xanomeline High Dose","Xanomeline High Dose",81,"Time to First Dermatologic Event","TTDE",2.0,"2012-12-14","2012-12-15",0.0,"Dematologic Event Occured","ADAE","ASTDT",2,"Y"],["CDISCPILOT01","716","01-716-1418",80,"65-80",2,"WHITE",1,"F","2013-05-05","2013-11-20",200,"Xanomeline High Dose","Xanomeline High Dose",81,"Time to First Dermatologic Event","TTDE",1.0,"2013-05-05","2013-05-05",0.0,"Dematologic Event Occured","ADAE","ASTDT",1,"Y"],["CDISCPILOT01","716","01-716-1441",85,">80",3,"WHITE",1,"M","2014-01-22","2014-07-22",182,"Placebo","Placebo",0,"Time to First Dermatologic Event","TTDE",110.0,"2014-01-22","2014-05-11",0.0,"Dematologic Event Occured","ADAE","ASTDT",1,"Y"],["CDISCPILOT01","716","01-716-1447",72,"65-80",2,"WHITE",1,"F","2013-12-16","2014-06-17",184,"Xanomeline High Dose","Xanomeline High Dose",81,"Time to First Dermatologic Event","TTDE",30.0,"2013-12-16","2014-01-14",0.0,"Dematologic Event Occured","ADAE","ASTDT",2,"Y"],["CDISCPILOT01","717","01-717-1004",80,"65-80",2,"WHITE",1,"F","2014-01-14","2014-07-16",184,"Xanomeline Low Dose","Xanomeline Low Dose",54,"Time to First Dermatologic Event","TTDE",2.0,"2014-01-14","2014-01-15",0.0,"Dematologic Event Occured","ADAE","ASTDT",6,"Y"],["CDISCPILOT01","717","01-717-1109",84,">80",3,"WHITE",1,"M","2014-01-27","2014-07-28",183,"Xanomeline High Dose","Xanomeline High Dose",81,"Time to First Dermatologic Event","TTDE",20.0,"2014-01-27","2014-02-15",0.0,"Dematologic Event Occured","ADAE","ASTDT",2,"Y"],["CDISCPILOT01","717","01-717-1174",73,"65-80",2,"WHITE",1,"M","2013-01-22","2013-07-24",184,"Xanomeline High Dose","Xanomeline High Dose",81,"Time to First Dermatologic Event","TTDE",5.0,"2013-01-22","2013-01-26",0.0,"Dematologic Event Occured","ADAE","ASTDT",1,"Y"],["CDISCPILOT01","717","01-717-1201",85,">80",3,"WHITE",1,"F","2013-12-19","2014-02-21",65,"Placebo","Placebo",0,"Time to First Dermatologic Event","TTDE",1.0,"2013-12-19","2013-12-19",0.0,"Dematologic Event Occured","ADAE","ASTDT",1,"Y"],["CDISCPILOT01","717","01-717-1344",64,"<65",1,"WHITE",1,"F","2014-01-11","2014-03-14",63,"Placebo","Placebo",0,"Time to First Dermatologic Event","TTDE",63.0,"2014-01-11","2014-03-14",1.0,"Study Completion Date","ADSL","RFENDT",null,"Y"],["CDISCPILOT01","717","01-717-1357",77,"65-80",2,"WHITE",1,"M","2013-05-01","2013-10-14",167,"Xanomeline High Dose","Xanomeline High Dose",81,"Time to First Dermatologic Event","TTDE",23.0,"2013-05-01","2013-05-23",0.0,"Dematologic Event Occured","ADAE","ASTDT",2,"Y"],["CDISCPILOT01","717","01-717-1446",75,"65-80",2,"WHITE",1,"F","2013-09-01","2014-03-03",184,"Xanomeline Low Dose","Xanomeline Low Dose",54,"Time to First Dermatologic Event","TTDE",19.0,"2013-09-01","2013-09-19",0.0,"Dematologic Event Occured","ADAE","ASTDT",3,"Y"],["CDISCPILOT01","718","01-718-1066",79,"65-80",2,"WHITE",1,"F","2013-07-07","2013-07-16",10,"Xanomeline Low Dose","Xanomeline Low Dose",54,"Time to First Dermatologic Event","TTDE",24.0,"2013-07-07","2013-07-30",1.0,"Study Completion Date","ADSL","RFENDT",null,"Y"],["CDISCPILOT01","718","01-718-1079",67,"65-80",2,"WHITE",1,"F","2012-09-19","2012-10-31",43,"Xanomeline Low Dose","Xanomeline Low Dose",54,"Time to First Dermatologic Event","TTDE",17.0,"2012-09-19","2012-10-05",0.0,"Dematologic Event Occured","ADAE","ASTDT",2,"Y"],["CDISCPILOT01","718","01-718-1101",82,">80",3,"BLACK OR AFRICAN AMERICAN",2,"M","2013-02-17","2013-07-31",165,"Xanomeline High Dose","Xanomeline High Dose",81,"Time to First Dermatologic Event","TTDE",167.0,"2013-02-17","2013-08-02",1.0,"Study Completion Date","ADSL","RFENDT",null,"Y"],["CDISCPILOT01","718","01-718-1139",77,"65-80",2,"WHITE",1,"M","2013-05-19","2013-11-17",183,"Placebo","Placebo",0,"Time to First Dermatologic Event","TTDE",183.0,"2013-05-19","2013-11-17",1.0,"Study Completion Date","ADSL","RFENDT",null,"Y"],["CDISCPILOT01","718","01-718-1150",73,"65-80",2,"WHITE",1,"F","2013-01-19","2013-07-29",192,"Placebo","Placebo",0,"Time to First Dermatologic Event","TTDE",56.0,"2013-01-19","2013-03-15",0.0,"Dematologic Event Occured","ADAE","ASTDT",3,"Y"],["CDISCPILOT01","718","01-718-1170",80,"65-80",2,"WHITE",1,"F","2013-09-16","2013-10-12",27,"Xanomeline Low Dose","Xanomeline Low Dose",54,"Time to First Dermatologic Event","TTDE",49.0,"2013-09-16","2013-11-03",1.0,"Study Completion Date","ADSL","RFENDT",null,"Y"],["CDISCPILOT01","718","01-718-1172",74,"65-80",2,"WHITE",1,"M","2013-09-21","2013-11-29",70,"Placebo","Placebo",0,"Time to First Dermatologic Event","TTDE",70.0,"2013-09-21","2013-11-29",1.0,"Study Completion Date","ADSL","RFENDT",null,"Y"],["CDISCPILOT01","718","01-718-1250",82,">80",3,"WHITE",1,"F","2013-09-21","2014-01-31",133,"Xanomeline Low Dose","Xanomeline Low Dose",54,"Time to First Dermatologic Event","TTDE",100.0,"2013-09-21","2013-12-29",0.0,"Dematologic Event Occured","ADAE","ASTDT",9,"Y"],["CDISCPILOT01","718","01-718-1254",78,"65-80",2,"WHITE",1,"M","2013-07-10","2014-01-09",184,"Xanomeline Low Dose","Xanomeline Low Dose",54,"Time to First Dermatologic Event","TTDE",35.0,"2013-07-10","2013-08-13",0.0,"Dematologic Event Occured","ADAE","ASTDT",4,"Y"],["CDISCPILOT01","718","01-718-1328",86,">80",3,"WHITE",1,"M","2013-02-01","2013-04-18",77,"Xanomeline High Dose","Xanomeline High Dose",81,"Time to First Dermatologic Event","TTDE",51.0,"2013-02-01","2013-03-23",0.0,"Dematologic Event Occured","ADAE","ASTDT",1,"Y"],["CDISCPILOT01","718","01-718-1355",79,"65-80",2,"WHITE",1,"M","2013-02-28","2013-08-29",183,"Placebo","Placebo",0,"Time to First Dermatologic Event","TTDE",9.0,"2013-02-28","2013-03-08",0.0,"Dematologic Event Occured","ADAE","ASTDT",1,"Y"],["CDISCPILOT01","718","01-718-1371",69,"65-80",2,"WHITE",1,"F","2013-04-26","2013-08-01",98,"Xanomeline High Dose","Xanomeline High Dose",81,"Time to First Dermatologic Event","TTDE",29.0,"2013-04-26","2013-05-24",0.0,"Dematologic Event Occured","ADAE","ASTDT",3,"Y"],["CDISCPILOT01","718","01-718-1427",74,"65-80",2,"BLACK OR AFRICAN AMERICAN",2,"F","2012-12-17","2013-02-11",57,"Xanomeline High Dose","Xanomeline High Dose",81,"Time to First Dermatologic Event","TTDE",42.0,"2012-12-17","2013-01-27",0.0,"Dematologic Event Occured","ADAE","ASTDT",9,"Y"]]}